t,px,py,pz,vx,vy,vz,ax,ay,az,yaw,mode
0.0,0,0,-10,0,0,0,0,0,0,0,20
0.05,0,0,-10,0,0,0,0,0,0,0,20
0.1,0,0,-10,0,0,0,0,0,0,0,20
0.15000000000000002,0,0,-10,0,0,0,0,0,0,0,20
0.2,0,0,-10,0,0,0,0,0,0,0,20
0.25,0,0,-10,0,0,0,0,0,0,0,20
0.30000000000000004,0,0,-10,0,0,0,0,0,0,0,20
0.35000000000000003,0,0,-10,0,0,0,0,0,0,0,20
0.4,0,0,-10,0,0,0,0,0,0,0,20
0.45,0,0,-10,0,0,0,0,0,0,0,20
0.5,0,0,-10,0,0,0,0,0,0,0,20
0.55,0,0,-10,0,0,0,0,0,0,0,20
0.6000000000000001,0,0,-10,0,0,0,0,0,0,0,20
0.65,0,0,-10,0,0,0,0,0,0,0,20
0.7000000000000001,0,0,-10,0,0,0,0,0,0,0,20
0.75,0,0,-10,0,0,0,0,0,0,0,20
0.8,0,0,-10,0,0,0,0,0,0,0,20
0.8500000000000001,0,0,-10,0,0,0,0,0,0,0,20
0.9,0,0,-10,0,0,0,0,0,0,0,20
0.9500000000000001,0,0,-10,0,0,0,0,0,0,0,20
1.0,0,0,-10,0,0,0,0,0,0,0,20
1.05,0,0,-10,0,0,0,0,0,0,0,20
1.1,0,0,-10,0,0,0,0,0,0,0,20
1.1500000000000001,0,0,-10,0,0,0,0,0,0,0,20
1.2000000000000002,0,0,-10,0,0,0,0,0,0,0,20
1.25,0,0,-10,0,0,0,0,0,0,0,20
1.3,0,0,-10,0,0,0,0,0,0,0,20
1.35,0,0,-10,0,0,0,0,0,0,0,20
1.4000000000000001,0,0,-10,0,0,0,0,0,0,0,20
1.4500000000000002,0,0,-10,0,0,0,0,0,0,0,20
1.5,0,0,-10,0,0,0,0,0,0,0,20
1.55,0,0,-10,0,0,0,0,0,0,0,20
1.6,0,0,-10,0,0,0,0,0,0,0,20
1.6500000000000001,0,0,-10,0,0,0,0,0,0,0,20
1.7000000000000002,0,0,-10,0,0,0,0,0,0,0,20
1.75,0,0,-10,0,0,0,0,0,0,0,20
1.8,0,0,-10,0,0,0,0,0,0,0,20
1.85,0,0,-10,0,0,0,0,0,0,0,20
1.9000000000000001,0,0,-10,0,0,0,0,0,0,0,20
1.9500000000000002,0,0,-10,0,0,0,0,0,0,0,20
2.0,0,0,-10,0,0,0,0,0,0,0,20
2.0500000000000003,0,0,-10,0,0,0,0,0,0,0,20
2.1,0,0,-10,0,0,0,0,0,0,0,20
2.15,0,0,-10,0,0,0,0,0,0,0,20
2.2,0,0,-10,0,0,0,0,0,0,0,20
2.25,0,0,-10,0,0,0,0,0,0,0,20
2.3000000000000003,0,0,-10,0,0,0,0,0,0,0,20
2.35,0,0,-10,0,0,0,0,0,0,0,20
2.4000000000000004,0,0,-10,0,0,0,0,0,0,0,20
2.45,0,0,-10,0,0,0,0,0,0,0,20
2.5,0,0,-10,0,0,0,0,0,0,0,20
2.5500000000000003,0,0,-10,0,0,0,0,0,0,0,20
2.6,0,0,-10,0,0,0,0,0,0,0,20
2.6500000000000004,0,0,-10,0,0,0,0,0,0,0,20
2.7,0,0,-10,0,0,0,0,0,0,0,20
2.75,0,0,-10,0,0,0,0,0,0,0,20
2.8000000000000003,0,0,-10,0,0,0,0,0,0,0,20
2.85,0,0,-10,0,0,0,0,0,0,0,20
2.9000000000000004,0,0,-10,0,0,0,0,0,0,0,20
2.95,0,0,-10,0,0,0,0,0,0,0,20
3.0,0,0,-10,0,0,0,0,0,0,0,20
3.0500000000000003,0,0,-10,0,0,0,0,0,0,0,20
3.1,0,0,-10,0,0,0,0,0,0,0,20
3.1500000000000004,0,0,-10,0,0,0,0,0,0,0,20
3.2,0,0,-10,0,0,0,0,0,0,0,20
3.25,0,0,-10,0,0,0,0,0,0,0,20
3.3000000000000003,0,0,-10,0,0,0,0,0,0,0,20
3.35,0,0,-10,0,0,0,0,0,0,0,20
3.4000000000000004,0,0,-10,0,0,0,0,0,0,0,20
3.45,0,0,-10,0,0,0,0,0,0,0,20
3.5,0,0,-10,0,0,0,0,0,0,0,20
3.5500000000000003,0,0,-10,0,0,0,0,0,0,0,20
3.6,0,0,-10,0,0,0,0,0,0,0,20
3.6500000000000004,0,0,-10,0,0,0,0,0,0,0,20
3.7,0,0,-10,0,0,0,0,0,0,0,20
3.75,0,0,-10,0,0,0,0,0,0,0,20
3.8000000000000003,0,0,-10,0,0,0,0,0,0,0,20
3.85,0,0,-10,0,0,0,0,0,0,0,20
3.9000000000000004,0,0,-10,0,0,0,0,0,0,0,20
3.95,0,0,-10,0,0,0,0,0,0,0,20
4.0,0.0,0.0,-10.0,-2.0,0.0,0.0,0,0,0,0,30
4.05,-0.1,0.0,-10.0,-2.0,0.0,0.0,0,0,0,0,30
4.1,-0.2,0.0,-10.0,-2.0,0.0,0.0,0,0,0,0,30
4.15,-0.3,0.0,-10.0,-2.0,0.0,0.0,0,0,0,0,30
4.2,-0.4,0.0,-10.0,-2.0,0.0,0.0,0,0,0,0,30
4.25,-0.5,0.0,-10.0,-2.0,0.0,0.0,0,0,0,0,30
4.3,-0.6,0.0,-10.0,-2.0,0.0,0.0,0,0,0,0,30
4.35,-0.7000000000000001,0.0,-10.0,-2.0,0.0,0.0,0,0,0,0,30
4.4,-0.8,0.0,-10.0,-2.0,0.0,0.0,0,0,0,0,30
4.45,-0.8999999999999999,0.0,-10.0,-2.0,0.0,0.0,0,0,0,0,30
4.5,-1.0,0.0,-10.0,-2.0,0.0,0.0,0,0,0,0,30
4.55,-1.1,0.0,-10.0,-2.0,0.0,0.0,0,0,0,0,30
4.6,-1.2,0.0,-10.0,-2.0,0.0,0.0,0,0,0,0,30
4.65,-1.3,0.0,-10.0,-2.0,0.0,0.0,0,0,0,0,30
4.7,-1.4000000000000001,0.0,-10.0,-2.0,0.0,0.0,0,0,0,0,30
4.75,-1.5,0.0,-10.0,-2.0,0.0,0.0,0,0,0,0,30
4.8,-1.6,0.0,-10.0,-2.0,0.0,0.0,0,0,0,0,30
4.85,-1.7000000000000002,0.0,-10.0,-2.0,0.0,0.0,0,0,0,0,30
4.9,-1.7999999999999998,0.0,-10.0,-2.0,0.0,0.0,0,0,0,0,30
4.95,-1.9,0.0,-10.0,-2.0,0.0,0.0,0,0,0,0,30
5.0,-2.0,0.0,-10.0,-2.0,0.0,0.0,0,0,0,0,30
5.05,-2.1,0.0,-10.0,-2.0,0.0,0.0,0,0,0,0,30
5.1,-2.2,0.0,-10.0,-2.0,0.0,0.0,0,0,0,0,30
5.15,-2.3000000000000003,0.0,-10.0,-2.0,0.0,0.0,0,0,0,0,30
5.2,-2.4,0.0,-10.0,-2.0,0.0,0.0,0,0,0,0,30
5.25,-2.5,0.0,-10.0,-2.0,0.0,0.0,0,0,0,0,30
5.3,-2.6,0.0,-10.0,-2.0,0.0,0.0,0,0,0,0,30
5.35,-2.7,0.0,-10.0,-2.0,0.0,0.0,0,0,0,0,30
5.4,-2.8000000000000003,0.0,-10.0,-2.0,0.0,0.0,0,0,0,0,30
5.45,-2.9,0.0,-10.0,-2.0,0.0,0.0,0,0,0,0,30
5.5,-3.0,0.0,-10.0,-2.0,0.0,0.0,0,0,0,0,30
5.55,-3.1,0.0,-10.0,-2.0,0.0,0.0,0,0,0,0,30
5.6,-3.2,0.0,-10.0,-2.0,0.0,0.0,0,0,0,0,30
5.65,-3.3000000000000003,0.0,-10.0,-2.0,0.0,0.0,0,0,0,0,30
5.7,-3.4000000000000004,0.0,-10.0,-2.0,0.0,0.0,0,0,0,0,30
5.75,-3.5,0.0,-10.0,-2.0,0.0,0.0,0,0,0,0,30
5.8,-3.5999999999999996,0.0,-10.0,-2.0,0.0,0.0,0,0,0,0,30
5.85,-3.7,0.0,-10.0,-2.0,0.0,0.0,0,0,0,0,30
5.9,-3.8,0.0,-10.0,-2.0,0.0,0.0,0,0,0,0,30
5.95,-3.9000000000000004,0.0,-10.0,-2.0,0.0,0.0,0,0,0,0,30
6.0,-4.0,0.0,-10.0,-2.0,0.0,0.0,0,0,0,0,30
6.050000000000001,-4.1,0.0,-10.0,-2.0,0.0,0.0,0,0,0,0,30
6.1,-4.2,0.0,-10.0,-2.0,0.0,0.0,0,0,0,0,30
6.15,-4.3,0.0,-10.0,-2.0,0.0,0.0,0,0,0,0,30
6.2,-4.4,0.0,-10.0,-2.0,0.0,0.0,0,0,0,0,30
6.25,-4.5,0.0,-10.0,-2.0,0.0,0.0,0,0,0,0,30
6.300000000000001,-4.6000000000000005,0.0,-10.0,-2.0,0.0,0.0,0,0,0,0,30
6.35,-4.699999999999999,0.0,-10.0,-2.0,0.0,0.0,0,0,0,0,30
6.4,-4.8,0.0,-10.0,-2.0,0.0,0.0,0,0,0,0,30
6.45,-4.9,0.0,-10.0,-2.0,0.0,0.0,0,0,0,0,30
6.5,-5.0,0.0,-10.0,-2.0,0.0,0.0,0,0,0,0,30
6.550000000000001,-5.1,0.0,-10.0,-2.0,0.0,0.0,0,0,0,0,30
6.6,-5.2,0.0,-10.0,-2.0,0.0,0.0,0,0,0,0,30
6.65,-5.300000000000001,0.0,-10.0,-2.0,0.0,0.0,0,0,0,0,30
6.7,-5.4,0.0,-10.0,-2.0,0.0,0.0,0,0,0,0,30
6.75,-5.5,0.0,-10.0,-2.0,0.0,0.0,0,0,0,0,30
6.800000000000001,-5.6000000000000005,0.0,-10.0,-2.0,0.0,0.0,0,0,0,0,30
6.85,-5.699999999999999,0.0,-10.0,-2.0,0.0,0.0,0,0,0,0,30
6.9,-5.8,0.0,-10.0,-2.0,0.0,0.0,0,0,0,0,30
6.95,-5.8999999999999995,0.0,-10.0,-2.0,0.0,0.0,0,0,0,0,30
7.0,-6.0,0.0,-10.0,-2.0,0.0,0.0,0,0,0,0,30
7.050000000000001,-6.1,0.0,-10.0,-2.0,0.0,0.0,0,0,0,0,30
7.1,-6.2,0.0,-10.0,-2.0,0.0,0.0,0,0,0,0,30
7.15,-6.3,0.0,-10.0,-2.0,0.0,0.0,0,0,0,0,30
7.2,-6.4,0.0,-10.0,-2.0,0.0,0.0,0,0,0,0,30
7.25,-6.5,0.0,-10.0,-2.0,0.0,0.0,0,0,0,0,30
7.300000000000001,-6.6000000000000005,0.0,-10.0,-2.0,0.0,0.0,0,0,0,0,30
7.35,-6.7,0.0,-10.0,-2.0,0.0,0.0,0,0,0,0,30
7.4,-6.800000000000001,0.0,-10.0,-2.0,0.0,0.0,0,0,0,0,30
7.45,-6.8999999999999995,0.0,-10.0,-2.0,0.0,0.0,0,0,0,0,30
7.5,-7.0,0.0,-10.0,-2.0,0.0,0.0,0,0,0,0,30
7.550000000000001,-7.1,0.0,-10.0,-2.0,0.0,0.0,0,0,0,0,30
7.6,-7.199999999999999,0.0,-10.0,-2.0,0.0,0.0,0,0,0,0,30
7.65,-7.3,0.0,-10.0,-2.0,0.0,0.0,0,0,0,0,30
7.7,-7.4,0.0,-10.0,-2.0,0.0,0.0,0,0,0,0,30
7.75,-7.5,0.0,-10.0,-2.0,0.0,0.0,0,0,0,0,30
7.800000000000001,-7.6,0.0,-10.0,-2.0,0.0,0.0,0,0,0,0,30
7.85,-7.7,0.0,-10.0,-2.0,0.0,0.0,0,0,0,0,30
7.9,-7.800000000000001,0.0,-10.0,-2.0,0.0,0.0,0,0,0,0,30
7.95,-7.9,0.0,-10.0,-2.0,0.0,0.0,0,0,0,0,30
8.0,-8.0,0.0,-10.0,-2.0,0.0,0.0,0,0,0,0,30
8.05,-8.100000000000001,0.0,-10.0,-2.0,0.0,0.0,0,0,0,0,30
8.100000000000001,-8.2,0.0,-10.0,-2.0,0.0,0.0,0,0,0,0,30
8.15,-8.299999999999999,0.0,-10.0,-2.0,0.0,0.0,0,0,0,0,30
8.2,-8.4,0.0,-10.0,-2.0,0.0,0.0,0,0,0,0,30
8.25,-8.5,0.0,-10.0,-2.0,0.0,0.0,0,0,0,0,30
8.3,-8.6,0.0,-10.0,-2.0,0.0,0.0,0,0,0,0,30
8.350000000000001,-8.7,0.0,-10.0,-2.0,0.0,0.0,0,0,0,0,30
8.4,-8.8,0.0,-10.0,-2.0,0.0,0.0,0,0,0,0,30
8.45,-8.9,0.0,-10.0,-2.0,0.0,0.0,0,0,0,0,30
8.5,-9.0,0.0,-10.0,-2.0,0.0,0.0,0,0,0,0,30
8.55,-9.1,0.0,-10.0,-2.0,0.0,0.0,0,0,0,0,30
8.600000000000001,-9.200000000000001,0.0,-10.0,-2.0,0.0,0.0,0,0,0,0,30
8.65,-9.3,0.0,-10.0,-2.0,0.0,0.0,0,0,0,0,30
8.7,-9.399999999999999,0.0,-10.0,-2.0,0.0,0.0,0,0,0,0,30
8.75,-9.5,0.0,-10.0,-2.0,0.0,0.0,0,0,0,0,30
8.8,-9.6,0.0,-10.0,-2.0,0.0,0.0,0,0,0,0,30
8.850000000000001,-9.7,0.0,-10.0,-2.0,0.0,0.0,0,0,0,0,30
8.9,-9.8,0.0,-10.0,-2.0,0.0,0.0,0,0,0,0,30
8.95,-9.9,0.0,-10.0,-2.0,0.0,0.0,0,0,0,0,30
9.0,-10.0,0.0,-10.0,-2.0,0.0,0.0,0,0,0,0,30
9.05,-10.1,0.0,-10.0,-2.0,0.0,0.0,0,0,0,0,30
9.100000000000001,-10.2,0.0,-10.0,-2.0,0.0,0.0,0,0,0,0,30
9.15,-10.3,0.0,-10.0,-2.0,0.0,0.0,0,0,0,0,30
9.2,-10.4,0.0,-10.0,-2.0,0.0,0.0,0,0,0,0,30
9.25,-10.5,0.0,-10.0,-2.0,0.0,0.0,0,0,0,0,30
9.3,-10.600000000000001,0.0,-10.0,-2.0,0.0,0.0,0,0,0,0,30
9.350000000000001,-10.700000000000001,0.0,-10.0,-2.0,0.0,0.0,0,0,0,0,30
9.4,-10.8,0.0,-10.0,-2.0,0.0,0.0,0,0,0,0,30
9.45,-10.9,0.0,-10.0,-2.0,0.0,0.0,0,0,0,0,30
9.5,-11.0,0.0,-10.0,-2.0,0.0,0.0,0,0,0,0,30
9.55,-11.100000000000001,0.0,-10.0,-2.0,0.0,0.0,0,0,0,0,30
9.600000000000001,-11.200000000000001,0.0,-10.0,-2.0,0.0,0.0,0,0,0,0,30
9.65,-11.299999999999999,0.0,-10.0,-2.0,0.0,0.0,0,0,0,0,30
9.7,-11.399999999999999,0.0,-10.0,-2.0,0.0,0.0,0,0,0,0,30
9.75,-11.5,0.0,-10.0,-2.0,0.0,0.0,0,0,0,0,30
9.8,-11.6,0.0,-10.0,-2.0,0.0,0.0,0,0,0,0,30
9.850000000000001,-11.7,0.0,-10.0,-2.0,0.0,0.0,0,0,0,0,30
9.9,-11.799999999999999,0.0,-10.0,-2.0,0.0,0.0,0,0,0,0,30
9.95,-11.899999999999999,0.0,-10.0,-2.0,0.0,0.0,0,0,0,0,30
10.0,-12.0,0.0,-10.0,-2.0,0.0,0.0,0,0,0,0,30
10.05,-12.1,0.0,-10.0,-2.0,0.0,0.0,0,0,0,0,30
10.100000000000001,-12.2,0.0,-10.0,-2.0,0.0,0.0,0,0,0,0,30
10.15,-12.3,0.0,-10.0,-2.0,0.0,0.0,0,0,0,0,30
10.2,-12.4,0.0,-10.0,-2.0,0.0,0.0,0,0,0,0,30
10.25,-12.5,0.0,-10.0,-2.0,0.0,0.0,0,0,0,0,30
10.3,-12.6,0.0,-10.0,-2.0,0.0,0.0,0,0,0,0,30
10.350000000000001,-12.7,0.0,-10.0,-2.0,0.0,0.0,0,0,0,0,30
10.4,-12.8,0.0,-10.0,-2.0,0.0,0.0,0,0,0,0,30
10.45,-12.9,0.0,-10.0,-2.0,0.0,0.0,0,0,0,0,30
10.5,-13.0,0.0,-10.0,-2.0,0.0,0.0,0,0,0,0,30
10.55,-13.100000000000001,0.0,-10.0,-2.0,0.0,0.0,0,0,0,0,30
10.600000000000001,-13.200000000000001,0.0,-10.0,-2.0,0.0,0.0,0,0,0,0,30
10.65,-13.3,0.0,-10.0,-2.0,0.0,0.0,0,0,0,0,30
10.7,-13.4,0.0,-10.0,-2.0,0.0,0.0,0,0,0,0,30
10.75,-13.5,0.0,-10.0,-2.0,0.0,0.0,0,0,0,0,30
10.8,-13.600000000000001,0.0,-10.0,-2.0,0.0,0.0,0,0,0,0,30
10.850000000000001,-13.700000000000001,0.0,-10.0,-2.0,0.0,0.0,0,0,0,0,30
10.9,-13.799999999999999,0.0,-10.0,-2.0,0.0,0.0,0,0,0,0,30
10.95,-13.899999999999999,0.0,-10.0,-2.0,0.0,0.0,0,0,0,0,30
11.0,-14.0,0.0,-10.0,-2.0,0.0,0.0,0,0,0,0,30
11.05,-14.1,0.0,-10.0,-2.0,0.0,0.0,0,0,0,0,30
11.100000000000001,-14.2,0.0,-10.0,-2.0,0.0,0.0,0,0,0,0,30
11.15,-14.299999999999999,0.0,-10.0,-2.0,0.0,0.0,0,0,0,0,30
11.2,-14.399999999999999,0.0,-10.0,-2.0,0.0,0.0,0,0,0,0,30
11.25,-14.5,0.0,-10.0,-2.0,0.0,0.0,0,0,0,0,30
11.3,-14.6,0.0,-10.0,-2.0,0.0,0.0,0,0,0,0,30
11.350000000000001,-14.7,0.0,-10.0,-2.0,0.0,0.0,0,0,0,0,30
11.4,-14.8,0.0,-10.0,-2.0,0.0,0.0,0,0,0,0,30
11.45,-14.9,0.0,-10.0,-2.0,0.0,0.0,0,0,0,0,30
11.5,-15.0,0.0,-10.0,-2.0,0.0,0.0,0,0,0,0,30
11.55,-15.1,0.0,-10.0,-2.0,0.0,0.0,0,0,0,0,30
11.600000000000001,-15.2,0.0,-10.0,-2.0,0.0,0.0,0,0,0,0,30
11.65,-15.3,0.0,-10.0,-2.0,0.0,0.0,0,0,0,0,30
11.7,-15.4,0.0,-10.0,-2.0,0.0,0.0,0,0,0,0,30
11.75,-15.5,0.0,-10.0,-2.0,0.0,0.0,0,0,0,0,30
11.8,-15.600000000000001,0.0,-10.0,-2.0,0.0,0.0,0,0,0,0,30
11.850000000000001,-15.700000000000001,0.0,-10.0,-2.0,0.0,0.0,0,0,0,0,30
11.9,-15.8,0.0,-10.0,-2.0,0.0,0.0,0,0,0,0,30
11.95,-15.9,0.0,-10.0,-2.0,0.0,0.0,0,0,0,0,30
12.0,-16.0,0.0,-10.0,-2.0,0.0,0.0,0,0,0,0,30
12.05,-16.1,0.0,-10.0,-2.0,0.0,0.0,0,0,0,0,30
12.1,-16.200000000000003,0.0,-10.0,-2.0,0.0,0.0,0,0,0,0,30
12.15,-16.299999999999997,0.0,-10.0,-2.0,0.0,0.0,0,0,0,0,30
12.200000000000001,-16.4,0.0,-10.0,-2.0,0.0,0.0,0,0,0,0,30
12.25,-16.5,0.0,-10.0,-2.0,0.0,0.0,0,0,0,0,30
12.3,-16.599999999999998,0.0,-10.0,-2.0,0.0,0.0,0,0,0,0,30
12.35,-16.7,0.0,-10.0,-2.0,0.0,0.0,0,0,0,0,30
12.4,-16.8,0.0,-10.0,-2.0,0.0,0.0,0,0,0,0,30
12.450000000000001,-16.9,0.0,-10.0,-2.0,0.0,0.0,0,0,0,0,30
12.5,-17.0,0.0,-10.0,-2.0,0.0,0.0,0,0,0,0,30
12.55,-17.1,0.0,-10.0,-2.0,0.0,0.0,0,0,0,0,30
12.6,-17.2,0.0,-10.0,-2.0,0.0,0.0,0,0,0,0,30
12.65,-17.3,0.0,-10.0,-2.0,0.0,0.0,0,0,0,0,30
12.700000000000001,-17.4,0.0,-10.0,-2.0,0.0,0.0,0,0,0,0,30
12.75,-17.5,0.0,-10.0,-2.0,0.0,0.0,0,0,0,0,30
12.8,-17.6,0.0,-10.0,-2.0,0.0,0.0,0,0,0,0,30
12.85,-17.7,0.0,-10.0,-2.0,0.0,0.0,0,0,0,0,30
12.9,-17.8,0.0,-10.0,-2.0,0.0,0.0,0,0,0,0,30
12.950000000000001,-17.9,0.0,-10.0,-2.0,0.0,0.0,0,0,0,0,30
13.0,-18.0,0.0,-10.0,-2.0,0.0,0.0,0,0,0,0,30
13.05,-18.1,0.0,-10.0,-2.0,0.0,0.0,0,0,0,0,30
13.1,-18.2,0.0,-10.0,-2.0,0.0,0.0,0,0,0,0,30
13.15,-18.3,0.0,-10.0,-2.0,0.0,0.0,0,0,0,0,30
13.200000000000001,-18.400000000000002,0.0,-10.0,-2.0,0.0,0.0,0,0,0,0,30
13.25,-18.5,0.0,-10.0,-2.0,0.0,0.0,0,0,0,0,30
13.3,-18.6,0.0,-10.0,-2.0,0.0,0.0,0,0,0,0,30
13.35,-18.700000000000003,0.0,-10.0,-2.0,0.0,0.0,0,0,0,0,30
13.4,-18.799999999999997,0.0,-10.0,-2.0,0.0,0.0,0,0,0,0,30
13.450000000000001,-18.9,0.0,-10.0,-2.0,0.0,0.0,0,0,0,0,30
13.5,-19.0,0.0,-10.0,-2.0,0.0,0.0,0,0,0,0,30
13.55,-19.099999999999998,0.0,-10.0,-2.0,0.0,0.0,0,0,0,0,30
13.600000000000001,-19.2,0.0,-10.0,-2.0,0.0,0.0,0,0,0,0,30
13.65,-19.3,0.0,-10.0,-2.0,0.0,0.0,0,0,0,0,30
13.700000000000001,-19.4,0.0,-10.0,-2.0,0.0,0.0,0,0,0,0,30
13.75,-19.5,0.0,-10.0,-2.0,0.0,0.0,0,0,0,0,30
13.8,-19.6,0.0,-10.0,-2.0,0.0,0.0,0,0,0,0,30
13.850000000000001,-19.7,0.0,-10.0,-2.0,0.0,0.0,0,0,0,0,30
13.9,-19.8,0.0,-10.0,-2.0,0.0,0.0,0,0,0,0,30
13.950000000000001,-19.9,0.0,-10.0,-2.0,0.0,0.0,0,0,0,0,30
14.0,-20,0,-10,0,0,0,0,0,0,0,40
14.05,-20,0,-10,0,0,0,0,0,0,0,40
14.1,-20,0,-10,0,0,0,0,0,0,0,40
14.15,-20,0,-10,0,0,0,0,0,0,0,40
14.2,-20,0,-10,0,0,0,0,0,0,0,40
14.25,-20,0,-10,0,0,0,0,0,0,0,40
14.3,-20,0,-10,0,0,0,0,0,0,0,40
14.35,-20,0,-10,0,0,0,0,0,0,0,40
14.4,-20,0,-10,0,0,0,0,0,0,0,40
14.45,-20,0,-10,0,0,0,0,0,0,0,40
14.5,-20,0,-10,0,0,0,0,0,0,0,40
14.55,-20,0,-10,0,0,0,0,0,0,0,40
14.6,-20,0,-10,0,0,0,0,0,0,0,40
14.65,-20,0,-10,0,0,0,0,0,0,0,40
14.7,-20,0,-10,0,0,0,0,0,0,0,40
14.75,-20,0,-10,0,0,0,0,0,0,0,40
14.8,-20,0,-10,0,0,0,0,0,0,0,40
14.85,-20,0,-10,0,0,0,0,0,0,0,40
14.9,-20,0,-10,0,0,0,0,0,0,0,40
14.95,-20,0,-10,0,0,0,0,0,0,0,40
15.0,-20,0,-10,0,0,0,0,0,0,0,40
15.05,-20,0,-10,0,0,0,0,0,0,0,40
15.1,-20,0,-10,0,0,0,0,0,0,0,40
15.15,-20,0,-10,0,0,0,0,0,0,0,40
15.2,-20,0,-10,0,0,0,0,0,0,0,40
15.25,-20,0,-10,0,0,0,0,0,0,0,40
15.3,-20,0,-10,0,0,0,0,0,0,0,40
15.35,-20,0,-10,0,0,0,0,0,0,0,40
15.4,-20,0,-10,0,0,0,0,0,0,0,40
15.45,-20,0,-10,0,0,0,0,0,0,0,40
15.5,-20,0,-10,0,0,0,0,0,0,0,40
15.55,-20,0,-10,0,0,0,0,0,0,0,40
15.6,-20,0,-10,0,0,0,0,0,0,0,40
15.65,-20,0,-10,0,0,0,0,0,0,0,40
15.7,-20,0,-10,0,0,0,0,0,0,0,40
15.75,-20,0,-10,0,0,0,0,0,0,0,40
15.8,-20,0,-10,0,0,0,0,0,0,0,40
15.85,-20,0,-10,0,0,0,0,0,0,0,40
15.9,-20,0,-10,0,0,0,0,0,0,0,40
15.95,-20,0,-10,0,0,0,0,0,0,0,40
16.0,-20,0,-10,0,0,0,0,0,0,0,40
16.05,-20,0,-10,0,0,0,0,0,0,0,40
16.1,-20,0,-10,0,0,0,0,0,0,0,40
16.15,-20,0,-10,0,0,0,0,0,0,0,40
16.2,-20,0,-10,0,0,0,0,0,0,0,40
16.25,-20,0,-10,0,0,0,0,0,0,0,40
16.3,-20,0,-10,0,0,0,0,0,0,0,40
16.35,-20,0,-10,0,0,0,0,0,0,0,40
16.4,-20,0,-10,0,0,0,0,0,0,0,40
16.45,-20,0,-10,0,0,0,0,0,0,0,40
16.5,-20,0,-10,0,0,0,0,0,0,0,40
16.55,-20,0,-10,0,0,0,0,0,0,0,40
16.6,-20,0,-10,0,0,0,0,0,0,0,40
16.65,-20,0,-10,0,0,0,0,0,0,0,40
16.7,-20,0,-10,0,0,0,0,0,0,0,40
16.75,-20,0,-10,0,0,0,0,0,0,0,40
16.8,-20,0,-10,0,0,0,0,0,0,0,40
16.85,-20,0,-10,0,0,0,0,0,0,0,40
16.9,-20,0,-10,0,0,0,0,0,0,0,40
16.95,-20,0,-10,0,0,0,0,0,0,0,40
17.0,-20,0,-10,0,0,0,0,0,0,0,40
17.05,-20,0,-10,0,0,0,0,0,0,0,40
17.1,-20,0,-10,0,0,0,0,0,0,0,40
17.15,-20,0,-10,0,0,0,0,0,0,0,40
17.2,-20,0,-10,0,0,0,0,0,0,0,40
17.25,-20,0,-10,0,0,0,0,0,0,0,40
17.3,-20,0,-10,0,0,0,0,0,0,0,40
17.35,-20,0,-10,0,0,0,0,0,0,0,40
17.4,-20,0,-10,0,0,0,0,0,0,0,40
17.45,-20,0,-10,0,0,0,0,0,0,0,40
17.5,-20,0,-10,0,0,0,0,0,0,0,40
17.55,-20,0,-10,0,0,0,0,0,0,0,40
17.6,-20,0,-10,0,0,0,0,0,0,0,40
17.65,-20,0,-10,0,0,0,0,0,0,0,40
17.7,-20,0,-10,0,0,0,0,0,0,0,40
17.75,-20,0,-10,0,0,0,0,0,0,0,40
17.8,-20,0,-10,0,0,0,0,0,0,0,40
17.85,-20,0,-10,0,0,0,0,0,0,0,40
17.9,-20,0,-10,0,0,0,0,0,0,0,40
17.95,-20,0,-10,0,0,0,0,0,0,0,40
18.0,-20.0,0.0,-10,-0.0,1.0471975511965976,0,-0.1096622711232151,-0.0,0,0,70
18.05,-20.000137077525732,0.052359638314195794,-10,-0.005483088502416539,1.0471831964716707,0,-0.10966076789993592,-0.000574187685272482,0,0,70
18.1,-20.00054830634488,0.10471784116245791,-10,-0.01096602668319202,1.0471401326904315,0,-0.10965625827131002,-0.0011483596288995234,0,0,70
18.15,-20.001233675183393,0.15707317311820676,-10,-0.01644866422480654,1.0470683610334954,0,-0.10964874236097115,-0.0017225000896672492,0,0,70
18.2,-20.002193165251544,0.20942419883356958,-10,-0.021930850817982343,1.046967883468519,0,-0.10963822037497181,-0.0022965933272249012,0,0,70
18.25,-20.00342675024443,0.2617694830787315,-10,-0.027412436165804684,1.046838702750145,0,-0.10962469260177748,-0.0028706236025163715,0,0,70
18.3,-20.004934396342684,0.3141075907812829,-10,-0.03289326998784225,1.0466808224199287,0,-0.10960815941225902,-0.003444575178211694,0,0,70
18.35,-20.006716062213435,0.36643708706556277,-10,-0.03837320202426718,1.0464942468062381,0,-0.10958862125968205,-0.004018432319138491,0,0,70
18.4,-20.008771699011415,0.41875653729199624,-10,-0.04385208203997452,1.0462789810241389,0,-0.10956607867969499,-0.004592179292713362,0,0,70
18.45,-20.0111012503803,0.47106450709642655,-10,-0.04932975982870102,1.0460350309752509,0,-0.10954053229031398,-0.0051658003693732,0,0,70
18.5,-20.013704652454262,0.5233595624294383,-10,-0.054806085217143065,1.0457624033475874,0,-0.10951198279190621,-0.005739279823006427,0,0,70
18.55,-20.016581833859718,0.5756402695956728,-10,-0.06028090806907379,1.045461105615373,0,-0.10948043096717064,-0.00631260193138413,0,0,70
18.6,-20.019732715717282,0.6279051952931337,-10,-0.0657540782894591,1.045131146038838,0,-0.10944587768111647,-0.006885750976591095,0,0,70
18.65,-20.023157211643948,0.6801529066524816,-10,-0.07122544582857268,1.0447725336639893,0,-0.10940832388103945,-0.007458711245456724,0,0,70
18.7,-20.02685522775542,0.7323819712763169,-10,-0.07669486068610959,1.0443852783223675,0,-0.10936777059649605,-0.008031467029985818,0,0,70
18.75,-20.030826662668723,0.7845909572784494,-10,-0.08216217291529866,1.043969390630773,0,-0.10932421893927496,-0.00860400262778922,0,0,70
18.8,-20.035071407504958,0.8367784333231548,-10,-0.08762723262701333,1.0435248819909768,0,-0.10927767010336696,-0.009176302342514295,0,0,70
18.85,-20.039589345892303,0.8889429686644152,-10,-0.09308988999388096,1.043051764589408,0,-0.10922812536493183,-0.00974835048427528,0,0,70
18.9,-20.0443803539692,0.9410831331851431,-10,-0.09854999525439036,1.0425500513968193,0,-0.10917558608226363,-0.01032013137008339,0,0,70
18.95,-20.049444300387737,0.9931974974363901,-10,-0.10400739871699767,1.042019756167931,0,-0.10912005369575332,-0.010891629324276814,0,0,70
19.0,-20.054781046317267,1.0452846326765346,-10,-0.10946195076423022,1.0414608934410547,0,-0.10906152972784934,-0.011462828678950442,0,0,70
19.05,-20.060390445448203,1.0973431109104528,-10,-0.11491350185678827,1.0408734785376947,0,-0.10900001578301584,-0.012033713774385437,0,0,70
19.1,-20.066272343996033,1.1493715049286661,-10,-0.12036190253764474,1.040257527562127,0,-0.10893551354768868,-0.012604268959478514,0,0,70
19.15,-20.072426580705546,1.2013683883464712,-10,-0.1258070034361428,1.0396130574009588,0,-0.1088680247902292,-0.013174478592171067,0,0,70
19.2,-20.07885298685522,1.2533323356430426,-10,-0.13124865527209065,1.0389400857226652,0,-0.10879755136087584,-0.013744327039877977,0,0,70
19.25,-20.085551386261898,1.3052619222005157,-10,-0.1366867088598544,1.0382386309771046,0,-0.1087240951916932,-0.014313798679916183,0,0,70
19.3,-20.092521595285564,1.3571557243430439,-10,-0.14212101511244804,1.037508712395013,0,-0.10864765829651929,-0.014882877899933025,0,0,70
19.35,-20.099763422834425,1.4090123193758266,-10,-0.1475514250456204,1.0367503499874777,0,-0.10856824277091023,-0.015451549098334202,0,0,70
19.4,-20.10727667037012,1.4608302856241162,-10,-0.1529777897819401,1.0359635645453866,0,-0.10848585079208273,-0.016019796684711558,0,0,70
19.45,-20.115061131913166,1.5126082024721923,-10,-0.15839996055487673,1.0351483776388604,0,-0.10840048461885454,-0.01658760508027046,0,0,70
19.5,-20.12311659404862,1.5643446504023086,-10,-0.16381778871287953,1.0343048116166595,0,-0.1083121465915824,-0.01715495871825691,0,0,70
19.55,-20.131442835931928,1.6160382110336113,-10,-0.16923112572345284,1.0334328896055724,0,-0.10822083913209796,-0.017721842044384338,0,0,70
19.6,-20.14003962929495,1.6676874671610227,-10,-0.17463982317722795,1.0325326355097826,0,-0.10812656474364135,-0.018288239517259993,0,0,70
19.65,-20.14890673845226,1.7192910027940953,-10,-0.18004373279203195,1.0316040740102097,0,-0.10802932601079253,-0.01885413560881104,0,0,70
19.7,-20.15804392030758,1.7708474031958332,-10,-0.18544270641695307,1.0306472305638368,0,-0.10792912559940053,-0.019419514804710283,0,0,70
19.75,-20.167450924360452,1.8223552549214748,-10,-0.190836596036402,1.0296621314030103,0,-0.10782596625651018,-0.01998436160480145,0,0,70
19.8,-20.17712749271311,1.873813145857246,-10,-0.19622525377417013,1.0286488035347212,0,-0.10771985081028701,-0.02054866052352419,0,0,70
19.85,-20.187073360077548,1.9252196652590743,-10,-0.20160853189748362,1.027607274739865,0,-0.10761078216993959,-0.0211123960903386,0,0,70
19.9,-20.19728825378278,1.9765734037912617,-10,-0.20698628282105333,1.0265375735724795,0,-0.10749876332563978,-0.021675552850149344,0,0,70
19.95,-20.207771893782343,2.027872953565125,-10,-0.21235835911112105,1.0254397293589628,0,-0.10738379734844077,-0.02223811536372937,0,0,70
20.0,-20.218523992661943,2.079116908177593,-10,-0.2177246134895017,1.0243137721972686,0,-0.10726588739019295,-0.022800068208143193,0,0,70
20.05,-20.22954425564736,2.130303862749766,-10,-0.22308489883762078,1.023159732956081,0,-0.1071450366834573,-0.02336139597716972,0,0,70
20.1,-20.240832380612524,2.1814324139654255,-10,-0.22843906820054766,1.0219776432739693,0,-0.10702124854141708,-0.023922083281724606,0,0,70
20.15,-20.25238805808778,2.2325011601095137,-10,-0.23378697479102462,1.0207675355585188,0,-0.10689452635778668,-0.024482114750282172,0,0,70
20.2,-20.264210971268398,2.2835087011065576,-10,-0.23912847199349105,1.0195294429854436,0,-0.10676487360671878,-0.025041475029296805,0,0,70
20.25,-20.276300796023236,2.334453638559054,-10,-0.24446341336810287,1.0182633994976775,0,-0.10663229384270909,-0.025600148783623895,0,0,70
20.3,-20.28865720090364,2.385334575785809,-10,-0.24979165265474743,1.0169694398044422,0,-0.10649679070049876,-0.026158120696940266,0,0,70
20.35,-20.301279847152532,2.4361501178602247,-10,-0.255113043777053,1.015647599380296,0,-0.10635836789497491,-0.026715375472164033,0,0,70
20.4,-20.31416838871369,2.486898871648548,-10,-0.26042744084639413,1.014297914464162,0,-0.10621702922106865,-0.027271897831874076,0,0,70
20.45,-20.32732247224123,2.5375794458480567,-10,-0.26573469816589046,1.0129204220583343,0,-0.1060727785536512,-0.02782767251872875,0,0,70
20.5,-20.34074173710932,2.5881904510252074,-10,-0.2710346702344015,1.0115151599274625,0,-0.10592561984742736,-0.028382684295884263,0,0,70
20.55,-20.35442581542202,2.6387304996537293,-10,-0.276327211750516,1.0100821665975181,0,-0.1057755571368275,-0.02893691794741241,0,0,70
20.6,-20.368374332023418,2.689198206152657,-10,-0.28161217761653456,1.0086214813547372,0,-0.10562259453589656,-0.02949035827871763,0,0,70
20.65,-20.38258690450789,2.7395921869243245,-10,-0.28688942294244846,1.0071331442445433,0,-0.10546673623818155,-0.030042990116953706,0,0,70
20.7,-20.397063143230568,2.789911060392293,-10,-0.29215880304991126,1.00561719607045,0,-0.10530798651661641,-0.030594798311439617,0,0,70
20.75,-20.41180265131807,2.840153447039226,-10,-0.29742017347620536,1.004073678392943,0,-0.10514634972340499,-0.03114576773407495,0,0,70
20.8,-20.426805024679325,2.890317969444716,-10,-0.3026733899782029,1.0025026335283382,0,-0.1049818302899016,-0.0316958832797547,0,0,70
20.85,-20.4420698520167,2.94040325232304,-10,-0.3079183085363199,1.0009041045476248,0,-0.1048144327264896,-0.03224512986678327,0,0,70
20.9,-20.45759671483723,2.990407922560867,-10,-0.31315478535846447,0.9992781352752821,0,-0.10464416162245778,-0.03279349243728802,0,0,70
20.95,-20.47338518746414,3.0403306092549034,-10,-0.3183826768839795,0.997624770288079,0,-0.10447102164587448,-0.0333409559576321,0,0,70
21.0,-20.489434837048464,3.090169943749474,-10,-0.3236018397875778,0.9959440549138517,0,-0.10429501754345955,-0.03388750541882651,0,0,70
21.05,-20.50574522358096,3.1399245596740495,-10,-0.328812130983272,0.9942360352302619,0,-0.10411615414045446,-0.03443312583694174,0,0,70
21.1,-20.522315899904143,3.1895930929807,-10,-0.33401340762829707,0.9925007580635311,0,-0.10393443634048967,-0.03497780225351837,0,0,70
21.15,-20.539146411724545,3.239174181981494,-10,-0.3392055271270263,0.9907382709871599,0,-0.10374986912545052,-0.03552151973597731,0,0,70
21.2,-20.55623629762519,3.2886664673858323,-10,-0.3443883471348809,0.9889486223206218,0,-0.10356245755534041,-0.036064263378029114,0,0,70
21.25,-20.573585089078215,3.3380685923377094,-10,-0.3495617255622323,0.9871318611280386,0,-0.1033722067681422,-0.03660601830008268,0,0,70
21.3,-20.591192310457746,3.3873792024529137,-10,-0.3547255205782976,0.9852880372168367,0,-0.10317912197967735,-0.037146769649653154,0,0,70
21.35,-20.609057479052908,3.4365969458561607,-10,-0.3598795906150278,0.9834172011363798,0,-0.10298320848346289,-0.03768650260176912,0,0,70
21.4,-20.627180105081088,3.4857204732181524,-10,-0.3650237943709895,0.9815194041765839,0,-0.10278447165056624,-0.03822520235937906,0,0,70
21.45,-20.645559691701326,3.5347484377925715,-10,-0.370157990815238,0.9795946983665118,0,-0.1025829169294581,-0.038762854153757,0,0,70
21.5,-20.66419573502798,3.5836794954530027,-10,-0.3752820391911843,0.977643136472945,0,-0.1023785498458629,-0.03929944324490738,0,0,70
21.55,-20.68308772414451,3.632512304729784,-10,-0.3803957990204539,0.975664771998939,0,-0.10217137600260756,-0.03983495492196924,0,0,70
21.6,-20.702235141117484,3.681245526846779,-10,-0.3854991301067376,0.9736596591823549,0,-0.10196140107946759,-0.04036937450361943,0,0,70
21.65,-20.7216374610108,3.7298778257580896,-10,-0.39059189253963617,0.9716278529943736,0,-0.10174863083301158,-0.04090268733847516,0,0,70
21.7,-20.741294151900053,3.7784078681846713,-10,-0.3956739466984945,0.9695694091379882,0,-0.10153307109644334,-0.04143487880549566,0,0,70
21.75,-20.761204674887132,3.826834323650897,-10,-0.4007451532562307,0.967484384046477,0,-0.10131472777944193,-0.04196593431438301,0,0,70
21.8,-20.781368484114996,3.87515586452103,-10,-0.4058053731831557,0.9653728348818557,0,-0.10109360686799966,-0.04249583930598221,0,0,70
21.85,-20.801785026782625,3.9233711660356145,-10,-0.41085446775078355,0.9632348195333116,0,-0.10086971442425806,-0.04302457925268021,0,0,70
21.9,-20.82245374316019,3.971478906347807,-10,-0.41589229853563653,0.9610703966156151,0,-0.10064305658634151,-0.04355213965880429,0,0,70
21.95,-20.84337406660439,4.019477766559602,-10,-0.4209187274230385,0.9588796254675143,0,-0.10041363956818918,-0.04407850606101941,0,0,70
22.0,-20.864545423573993,4.0673664307580015,-10,-0.4259336166109025,0.9566625661501067,0,-0.1001814696593845,-0.04460366402872476,0,0,70
22.05,-20.885967233645545,4.115143586051087,-10,-0.4309368286135084,0.9544192794451937,0,-0.09994655322498282,-0.045127599164449396,0,0,70
22.1,-20.907638909529314,4.162807922604012,-10,-0.4359282262652717,0.9521498268536129,0,-0.0997088967053368,-0.04565029710424689,0,0,70
22.15,-20.92955985708535,4.2103581336749105,-10,-0.4409076727245044,0.9498542705935539,0,-0.09946850661592002,-0.04617174351808919,0,0,70
22.2,-20.951729475339803,4.257792915650727,-10,-0.44587503147716634,0.9475326735988513,0,-0.09922538954714821,-0.04669192411025945,0,0,70
22.25,-20.974147156501395,4.305110968082952,-10,-0.4508301663406081,0.9451850995172589,0,-0.09897955216419861,-0.047210824619743956,0,0,70
22.3,-20.996812285978066,4.352310993723275,-10,-0.45577294146730446,0.9428116127087065,0,-0.09873100120682726,-0.047728430820623155,0,0,70
22.35,-21.019724242393842,4.3993916985591515,-10,-0.4607032213485784,0.9404122782435338,0,-0.09847974348918422,-0.04824472852246155,0,0,70
22.4,-21.042882397605872,4.446351791849275,-10,-0.4656208708183165,0.9379871619007073,0,-0.09822578589962673,-0.048759703570696845,0,0,70
22.45,-21.066286116721624,4.493189986158966,-10,-0.47052575505667443,0.9355363301660162,0,-0.09796913540053039,-0.04927334184702796,0,0,70
22.5,-21.08993475811632,4.5399049973954675,-10,-0.475417739593773,0.933059850230251,0,-0.0977097990280983,-0.04978562926980209,0,0,70
22.55,-21.113827673450512,4.586495544843149,-10,-0.48029669031338507,0.9305577899873597,0,-0.0974477838921681,-0.05029655179440075,0,0,70
22.6,-21.13796420768785,4.6329603511986175,-10,-0.4851624734566122,0.928030218032588,0,-0.0971830971760171,-0.05080609541362486,0,0,70
22.65,-21.162343699113066,4.679298142605734,-10,-0.49001495562555125,0.9254772036605979,0,-0.0969157461361653,-0.051314246158078676,0,0,70
22.7,-21.18696547935008,4.72550764869054,-10,-0.49485400378695255,0.9228988168635681,0,-0.09664573810217658,-0.05182099009655286,0,0,70
22.75,-21.211828873380348,4.771587602596084,-10,-0.49967948527586636,0.9202951283292747,0,-0.09637308047645751,-0.05232631333640637,0,0,70
22.8,-21.236933199561363,4.817536741017153,-10,-0.50449126779928,0.9176662094391544,0,-0.09609778073405467,-0.05283020202394731,0,0,70
22.85,-21.262277769645348,4.863353804234905,-10,-0.509289219439745,0.9150121322663466,0,-0.09581984642244955,-0.05333264234481277,0,0,70
22.9,-21.287861888798105,4.909037536151409,-10,-0.5140732086589935,0.9123329695737176,0,-0.0955392851613517,-0.05383362052434756,0,0,70
22.95,-21.31368485561809,4.954586684324076,-10,-0.5188431043015442,0.9096287948118659,0,-0.09525610464248985,-0.054333122827981806,0,0,70
23.0,-21.33974596215561,4.999999999999999,-10,-0.5235987755982987,0.9068996821171089,0,-0.09497031262940095,-0.054831135561607534,0,0,70
23.05,-21.366044493932286,5.045276238150192,-10,-0.5283400921701263,0.9041457063094493,0,-0.09468191695721737,-0.05532764507195411,0,0,70
23.1,-21.392579729960563,5.090414157503713,-10,-0.5330669240314381,0.9013669428905257,0,-0.09439092553245221,-0.05582263774696247,0,0,70
23.15,-21.419350942763558,5.135412520581701,-10,-0.5377791415937505,0.8985634680415399,0,-0.09409734633278229,-0.05631610001615839,0,0,70
23.2,-21.446357398394934,5.180270093731302,-10,-0.5424766156692389,0.895735358621172,0,-0.09380118740682976,-0.05680801835102448,0,0,70
23.25,-21.473598356459078,5.224985647159488,-10,-0.5471592174742786,0.8928826921634699,0,-0.09350245687394114,-0.057298379265371124,0,0,70
23.3,-21.501073070131362,5.269557954966776,-10,-0.5518268186329759,0.8900055468757258,0,-0.09320116292396488,-0.057787169315706134,0,0,70
23.35,-21.52878078617863,5.31398579518083,-10,-0.556479291180687,0.8871040016363307,0,-0.09289731381702682,-0.05827437510160339,0,0,70
23.4,-21.55672074497985,5.358267949789966,-10,-0.5611165075675266,0.8841781359926135,0,-0.09259091788330374,-0.05875998326607012,0,0,70
23.45,-21.584892180546937,5.40240320477655,-10,-0.5657383406618656,0.8812280301586586,0,-0.09228198352279489,-0.05924398049591321,0,0,70
23.5,-21.61329432054576,5.44639035015027,-10,-0.5703446637538143,0.8782537650131079,0,-0.09197051920509189,-0.05972635352210412,0,0,70
23.55,-21.641926386317298,5.490228179981318,-10,-0.5749353505586989,0.8752554220969423,0,-0.09165653346914626,-0.06020708912014271,0,0,70
23.6,-21.670787592899003,5.533915492433441,-10,-0.5795102752205213,0.8722330836112481,0,-0.09134003492303563,-0.060686174110419634,0,0,70
23.65,-21.699877149046326,5.577451089796902,-10,-0.584069312315411,0.869186832414961,0,-0.09102103224372747,-0.06116359535857793,0,0,70
23.7,-21.72919425725438,5.620833778521305,-10,-0.588612336855063,0.866116752022597,0,-0.09069953417684144,-0.06163933977587289,0,0,70
23.75,-21.75873811377984,5.664062369248328,-10,-0.5931392242901649,0.8630229266019602,0,-0.09037554953640939,-0.06211339431953102,0,0,70
23.8,-21.788507908662957,5.707135676844317,-10,-0.5976498505138106,0.8599054409718379,0,-0.0900490872046339,-0.06258574599310751,0,0,70
23.85,-21.818502825749768,5.750052520432786,-10,-0.6021440918649038,0.8567643805996729,0,-0.08972015613164473,-0.06305638184684265,0,0,70
23.9,-21.848722042714456,5.792811723426788,-10,-0.6066218251315475,0.8535998315992225,0,-0.08938876533525339,-0.06352528897801672,0,0,70
23.95,-21.879164731081936,5.8354121135611745,-10,-0.6110829275544224,0.8504118807281958,0,-0.08905492390070599,-0.06399245453130391,0,0,70
24.0,-21.909830056250527,5.877852522924732,-10,-0.6155272768301523,0.8472006153858767,0,-0.08871864098043407,-0.06445786569912458,0,0,70
24.05,-21.94071717751484,5.9201317879921955,-10,-0.6199547511146563,0.843966123610726,0,-0.08837992579380374,-0.06492150972199642,0,0,70
24.1,-21.971825248088855,5.962248749656158,-10,-0.6243652290264906,0.8407084940779704,0,-0.088038787626863,-0.06538337388888438,0,0,70
24.15,-22.003153415129095,6.004202253258841,-10,-0.6287585896501753,0.8374278160971687,0,-0.08769523583208698,-0.06584344553754899,0,0,70
24.2,-22.034700819758037,6.045991148623749,-10,-0.6331347125395095,0.834124179609765,0,-0.0873492798281217,-0.06630171205489362,0,0,70
24.25,-22.066466597087647,6.087614290087206,-10,-0.6374934777208737,0.8307976751866224,0,-0.08700092909952575,-0.06675816087731018,0,0,70
24.3,-22.098449876243098,6.129070536529765,-10,-0.6418347656965188,0.8274483940255402,0,-0.08665019319651032,-0.06721277949102364,0,0,70
24.35,-22.130649780386626,6.170358751407487,-10,-0.6461584574478416,0.8240764279487532,0,-0.08629708173467739,-0.06766555543243508,0,0,70
24.4,-22.163065426741603,6.211477802783103,-10,-0.6504644344386488,0.8206818694004149,0,-0.08594160439475604,-0.06811647628846329,0,0,70
24.45,-22.195695926616704,6.2524265633570515,-10,-0.6547525786184064,0.817264811444062,0,-0.08558377092233711,-0.06856552969688529,0,0,70
24.5,-22.228540385430293,6.2932039104983755,-10,-0.6590227724254751,0.8138253477600654,0,-0.085223591127606,-0.06901270334667503,0,0,70
24.55,-22.261597902734938,6.333808726275501,-10,-0.6632748987903346,0.8103635726430588,0,-0.08486107488507375,-0.06945798497834096,0,0,70
24.6,-22.294867572242108,6.374239897486897,-10,-0.6675088411387929,0.806879580999356,0,-0.08449623213330625,-0.06990136238426228,0,0,70
24.65,-22.328348481847,6.4144963156915775,-10,-0.6717244833951818,0.803373468344348,0,-0.08412907287465185,-0.07034282340902341,0,0,70
24.7,-22.36203971365358,6.454576877239506,-10,-0.6759217099855394,0.7998453307998836,0,-0.08375960717496708,-0.07078235594974737,0,0,70
24.75,-22.39594034399969,6.494480483301837,-10,-0.680100405840778,0.7962952650916367,0,-0.08338784516334076,-0.0712199479564275,0,0,70
24.8,-22.430049443482435,6.534206039901055,-10,-0.6842604563998403,0.7927233685464514,0,-0.0830137970318162,-0.0716555874322579,0,0,70
24.85,-22.46436607698362,6.573752457940958,-10,-0.6884017476128386,0.7891297390896763,0,-0.08263747303511192,-0.0720892624339623,0,0,70
24.9,-22.498889303695403,6.613118653236518,-10,-0.6925241659441823,0.7855144752424779,0,-0.08225888349034033,-0.07252096107212141,0,0,70
24.95,-22.533618177146085,6.652303546543608,-10,-0.6966275983756909,0.7818776761191409,0,-0.08187803877672509,-0.07295067151149903,0,0,70
25.0,-22.56855174522606,6.691306063588582,-10,-0.7007119324096909,0.7782194414243502,0,-0.08149494933531636,-0.07337838197136641,0,0,70
25.05,-22.6036890502139,6.730125135097733,-10,-0.7047770560721017,0.7745398714504581,0,-0.08110962566870474,-0.07380408072582521,0,0,70
25.1,-22.639029128802655,6.768759696826607,-10,-0.7088228579155048,0.7708390670747344,0,-0.08072207834073318,-0.07422775610412906,0,0,70
25.15,-22.67457101212621,6.807208689589178,-10,-0.7128492270221988,0.7671171297566002,0,-0.08033231797620743,-0.07464939649100341,0,0,70
25.2,-22.710313725785884,6.845471059286886,-10,-0.7168560530072408,0.7633741615348472,0,-0.07994035526060479,-0.0750689903269641,0,0,70
25.25,-22.746256289877124,6.88354575693754,-10,-0.7208432260214722,0.7596102650248399,0,-0.07954620093978108,-0.07548652610863414,0,0,70
25.3,-22.78239771901638,6.921431738704068,-10,-0.724810636754531,0.7558255434157026,0,-0.07914986581967616,-0.07590199238905915,0,0,70
25.35,-22.81873702236811,6.959127965923145,-10,-0.7287581764378478,0.7520201004674901,0,-0.0787513607660175,-0.07631537777802123,0,0,70
25.4,-22.855273203671967,6.996633405133654,-10,-0.7326857368476276,0.7481940405083429,0,-0.07835069670402246,-0.07672667094235103,0,0,70
25.45,-22.892005261270075,7.033947028105039,-10,-0.7365932103078182,0.7443474684316277,0,-0.07794788461809875,-0.07713586060623877,0,0,70
25.5,-22.928932188134524,7.071067811865475,-10,-0.7404804896930609,0.740480489693061,0,-0.0775429355515431,-0.0775429355515431,0,0,70
25.55,-22.96605297189496,7.107994738729925,-10,-0.7443474684316277,0.7365932103078182,0,-0.07713586060623877,-0.07794788461809875,0,0,70
25.6,-23.003366594866346,7.144726796328033,-10,-0.7481940405083429,0.7326857368476276,0,-0.07672667094235103,-0.07835069670402246,0,0,70
25.65,-23.040872034076855,7.181262977631889,-10,-0.7520201004674901,0.7287581764378476,0,-0.07631537777802119,-0.0787513607660175,0,0,70
25.7,-23.07856826129593,7.2176022809836216,-10,-0.7558255434157026,0.724810636754531,0,-0.07590199238905915,-0.07914986581967616,0,0,70
25.75,-23.11645424306246,7.253743710122875,-10,-0.7596102650248399,0.7208432260214722,0,-0.07548652610863414,-0.07954620093978108,0,0,70
25.8,-23.154528940713114,7.289686274214116,-10,-0.7633741615348472,0.7168560530072408,0,-0.0750689903269641,-0.07994035526060479,0,0,70
25.85,-23.192791310410822,7.325428987873788,-10,-0.7671171297566002,0.7128492270221988,0,-0.07464939649100341,-0.08033231797620743,0,0,70
25.9,-23.231240303173394,7.360970871197344,-10,-0.7708390670747344,0.7088228579155048,0,-0.07422775610412906,-0.08072207834073318,0,0,70
25.95,-23.269874864902267,7.396310949786097,-10,-0.7745398714504581,0.7047770560721018,0,-0.07380408072582523,-0.08110962566870474,0,0,70
26.0,-23.308693936411416,7.431448254773941,-10,-0.7782194414243501,0.7007119324096909,0,-0.07337838197136641,-0.08149494933531636,0,0,70
26.05,-23.347696453456393,7.466381822853913,-10,-0.7818776761191407,0.6966275983756909,0,-0.07295067151149903,-0.08187803877672507,0,0,70
26.1,-23.38688134676348,7.501110696304595,-10,-0.7855144752424777,0.6925241659441824,0,-0.07252096107212143,-0.08225888349034031,0,0,70
26.15,-23.426247542059045,7.53563392301638,-10,-0.7891297390896763,0.6884017476128385,0,-0.07208926243396228,-0.08263747303511192,0,0,70
26.200000000000003,-23.465793960098946,7.569950556517565,-10,-0.7927233685464515,0.6842604563998402,0,-0.0716555874322579,-0.0830137970318162,0,0,70
26.25,-23.505519516698165,7.6040596560003095,-10,-0.7962952650916367,0.680100405840778,0,-0.0712199479564275,-0.08338784516334076,0,0,70
26.3,-23.545423122760493,7.637960286346422,-10,-0.7998453307998836,0.6759217099855394,0,-0.07078235594974737,-0.08375960717496708,0,0,70
26.35,-23.58550368430842,7.671651518152995,-10,-0.8033734683443476,0.6717244833951821,0,-0.07034282340902343,-0.08412907287465184,0,0,70
26.4,-23.6257601025131,7.705132427757892,-10,-0.806879580999356,0.6675088411387932,0,-0.06990136238426228,-0.08449623213330625,0,0,70
26.450000000000003,-23.6661912737245,7.7384020972650625,-10,-0.8103635726430589,0.6632748987903345,0,-0.06945798497834096,-0.08486107488507375,0,0,70
26.5,-23.706796089501623,7.771459614569709,-10,-0.8138253477600654,0.6590227724254751,0,-0.06901270334667503,-0.085223591127606,0,0,70
26.55,-23.74757343664295,7.804304073383297,-10,-0.817264811444062,0.6547525786184064,0,-0.06856552969688529,-0.08558377092233711,0,0,70
26.6,-23.7885221972169,7.836934573258398,-10,-0.8206818694004149,0.6504644344386488,0,-0.06811647628846329,-0.08594160439475604,0,0,70
26.65,-23.829641248592512,7.8693502196133736,-10,-0.8240764279487534,0.6461584574478416,0,-0.06766555543243508,-0.0862970817346774,0,0,70
26.700000000000003,-23.870929463470233,7.901550123756904,-10,-0.8274483940255403,0.6418347656965188,0,-0.06721277949102364,-0.08665019319651032,0,0,70
26.75,-23.912385709912794,7.933533402912351,-10,-0.8307976751866224,0.6374934777208737,0,-0.06675816087731018,-0.08700092909952575,0,0,70
26.8,-23.95400885137625,7.965299180241963,-10,-0.834124179609765,0.6331347125395095,0,-0.06630171205489362,-0.0873492798281217,0,0,70
26.85,-23.995797746741157,7.996846584870905,-10,-0.8374278160971687,0.6287585896501754,0,-0.06584344553754902,-0.08769523583208698,0,0,70
26.9,-24.03775125034384,8.028174751911145,-10,-0.8407084940779704,0.6243652290264905,0,-0.06538337388888438,-0.088038787626863,0,0,70
26.950000000000003,-24.079868212007806,8.059282822485159,-10,-0.8439661236107263,0.6199547511146563,0,-0.06492150972199642,-0.08837992579380376,0,0,70
27.0,-24.122147477075266,8.090169943749475,-10,-0.8472006153858767,0.6155272768301523,0,-0.06445786569912458,-0.08871864098043407,0,0,70
27.05,-24.164587886438824,8.120835268918063,-10,-0.8504118807281958,0.6110829275544226,0,-0.06399245453130394,-0.08905492390070599,0,0,70
27.1,-24.207188276573213,8.15127795728554,-10,-0.8535998315992223,0.6066218251315476,0,-0.06352528897801674,-0.08938876533525338,0,0,70
27.15,-24.249947479567215,8.181497174250236,-10,-0.8567643805996731,0.6021440918649037,0,-0.06305638184684263,-0.08972015613164475,0,0,70
27.200000000000003,-24.292864323155683,8.21149209133704,-10,-0.8599054409718379,0.5976498505138105,0,-0.0625857459931075,-0.0900490872046339,0,0,70
27.25,-24.335937630751673,8.241261886220157,-10,-0.8630229266019602,0.5931392242901649,0,-0.06211339431953102,-0.09037554953640939,0,0,70
27.3,-24.379166221478695,8.270805742745619,-10,-0.866116752022597,0.588612336855063,0,-0.06163933977587289,-0.09069953417684144,0,0,70
27.35,-24.422548910203098,8.300122850953674,-10,-0.869186832414961,0.584069312315411,0,-0.06116359535857793,-0.09102103224372747,0,0,70
27.4,-24.46608450756656,8.329212407100995,-10,-0.8722330836112481,0.5795102752205213,0,-0.060686174110419634,-0.09134003492303563,0,0,70
27.450000000000003,-24.509771820018685,8.358073613682704,-10,-0.8752554220969426,0.5749353505586987,0,-0.06020708912014267,-0.09165653346914628,0,0,70
27.5,-24.553609649849726,8.38670567945424,-10,-0.8782537650131078,0.5703446637538145,0,-0.059726353522104154,-0.09197051920509186,0,0,70
27.55,-24.597596795223453,8.415107819453063,-10,-0.8812280301586589,0.5657383406618653,0,-0.0592439804959132,-0.0922819835227949,0,0,70
27.6,-24.641732050210035,8.443279255020151,-10,-0.8841781359926135,0.5611165075675265,0,-0.058759983266070105,-0.09259091788330374,0,0,70
27.65,-24.686014204819173,8.47121921382137,-10,-0.8871040016363307,0.5564792911806868,0,-0.058274375101603375,-0.09289731381702682,0,0,70
27.700000000000003,-24.730442045033225,8.49892692986864,-10,-0.8900055468757258,0.5518268186329759,0,-0.05778716931570613,-0.09320116292396488,0,0,70
27.75,-24.77501435284051,8.526401643540922,-10,-0.8928826921634699,0.5471592174742788,0,-0.05729837926537113,-0.09350245687394114,0,0,70
27.8,-24.819729906268698,8.553642601605066,-10,-0.895735358621172,0.5424766156692389,0,-0.05680801835102448,-0.09380118740682976,0,0,70
27.85,-24.8645874794183,8.580649057236446,-10,-0.8985634680415402,0.5377791415937503,0,-0.05631610001615837,-0.0940973463327823,0,0,70
27.9,-24.909585842496288,8.607420270039437,-10,-0.9013669428905257,0.533066924031438,0,-0.05582263774696246,-0.09439092553245221,0,0,70
27.950000000000003,-24.954723761849806,8.633955506067716,-10,-0.9041457063094493,0.5283400921701263,0,-0.05532764507195411,-0.09468191695721737,0,0,70
28.0,-25.0,8.660254037844386,-10,-0.9068996821171088,0.5235987755982989,0,-0.054831135561607555,-0.09497031262940092,0,0,70
28.05,-25.045413315675923,8.686315144381911,-10,-0.9096287948118659,0.5188431043015442,0,-0.054333122827981806,-0.09525610464248985,0,0,70
28.1,-25.09096246384859,8.712138111201895,-10,-0.9123329695737177,0.5140732086589933,0,-0.05383362052434754,-0.09553928516135173,0,0,70
28.15,-25.136646195765096,8.737722230354652,-10,-0.9150121322663466,0.509289219439745,0,-0.05333264234481277,-0.09581984642244955,0,0,70
28.200000000000003,-25.18246325898285,8.763066800438637,-10,-0.9176662094391544,0.5044912677992799,0,-0.05283020202394728,-0.09609778073405467,0,0,70
28.25,-25.228412397403915,8.788171126619652,-10,-0.9202951283292744,0.4996794852758665,0,-0.052326313336406374,-0.0963730804764575,0,0,70
28.3,-25.274492351309462,8.813034520649923,-10,-0.9228988168635681,0.4948540037869524,0,-0.05182099009655284,-0.09664573810217658,0,0,70
28.35,-25.32070185739427,8.837656300886936,-10,-0.9254772036605982,0.4900149556255509,0,-0.05131424615807864,-0.09691574613616534,0,0,70
28.4,-25.36703964880138,8.862035792312147,-10,-0.928030218032588,0.4851624734566122,0,-0.05080609541362486,-0.0971830971760171,0,0,70
28.450000000000003,-25.41350445515685,8.886172326549488,-10,-0.9305577899873597,0.48029669031338507,0,-0.05029655179440075,-0.0974477838921681,0,0,70
28.5,-25.460095002604533,8.910065241883679,-10,-0.933059850230251,0.4754177395937731,0,-0.049785629269802095,-0.0977097990280983,0,0,70
28.55,-25.506810013841033,8.933713883278376,-10,-0.9355363301660162,0.4705257550566743,0,-0.04927334184702795,-0.09796913540053039,0,0,70
28.6,-25.553648208150726,8.95711760239413,-10,-0.9379871619007073,0.4656208708183165,0,-0.048759703570696845,-0.09822578589962673,0,0,70
28.65,-25.60060830144085,8.980275757606156,-10,-0.9404122782435338,0.4607032213485783,0,-0.048244728522461526,-0.09847974348918422,0,0,70
28.700000000000003,-25.647689006276728,9.003187714021937,-10,-0.9428116127087066,0.45577294146730424,0,-0.04772843082062312,-0.09873100120682728,0,0,70
28.75,-25.694889031917047,9.025852843498605,-10,-0.9451850995172587,0.4508301663406082,0,-0.04721082461974398,-0.09897955216419858,0,0,70
28.8,-25.742207084349275,9.048270524660197,-10,-0.9475326735988513,0.44587503147716634,0,-0.04669192411025945,-0.09922538954714821,0,0,70
28.85,-25.78964186632509,9.07044014291465,-10,-0.9498542705935539,0.44090767272450415,0,-0.04617174351808917,-0.09946850661592002,0,0,70
28.9,-25.83719207739599,9.092361090470686,-10,-0.9521498268536129,0.4359282262652717,0,-0.04565029710424689,-0.0997088967053368,0,0,70
28.950000000000003,-25.884856413948913,9.114032766354454,-10,-0.9544192794451937,0.43093682861350835,0,-0.04512759916444938,-0.09994655322498282,0,0,70
29.0,-25.932633569241997,9.135454576426008,-10,-0.9566625661501067,0.4259336166109027,0,-0.04460366402872478,-0.1001814696593845,0,0,70
29.05,-25.9805222334404,9.156625933395611,-10,-0.9588796254675145,0.4209187274230383,0,-0.04407850606101939,-0.1004136395681892,0,0,70
29.1,-26.028521093652195,9.177546256839811,-10,-0.9610703966156151,0.4158922985356364,0,-0.04355213965880428,-0.10064305658634151,0,0,70
29.15,-26.076628833964385,9.198214973217375,-10,-0.9632348195333115,0.4108544677507836,0,-0.04302457925268021,-0.10086971442425804,0,0,70
29.200000000000003,-26.12484413547897,9.218631515885004,-10,-0.9653728348818557,0.4058053731831556,0,-0.04249583930598221,-0.10109360686799966,0,0,70
29.25,-26.1731656763491,9.238795325112868,-10,-0.967484384046477,0.4007451532562309,0,-0.04196593431438303,-0.10131472777944193,0,0,70
29.3,-26.221592131815328,9.258705848099947,-10,-0.9695694091379882,0.39567394669849437,0,-0.04143487880549565,-0.10153307109644334,0,0,70
29.35,-26.270122174241912,9.2783625389892,-10,-0.9716278529943736,0.39059189253963617,0,-0.04090268733847516,-0.10174863083301158,0,0,70
29.4,-26.31875447315322,9.297764858882514,-10,-0.9736596591823549,0.3854991301067376,0,-0.040369374503619423,-0.10196140107946759,0,0,70
29.450000000000003,-26.36748769527022,9.31691227585549,-10,-0.975664771998939,0.3803957990204536,0,-0.03983495492196922,-0.10217137600260756,0,0,70
29.5,-26.416320504546995,9.335804264972017,-10,-0.977643136472945,0.37528203919118447,0,-0.0392994432449074,-0.1023785498458629,0,0,70
29.55,-26.465251562207428,9.354440308298674,-10,-0.9795946983665118,0.370157990815238,0,-0.038762854153757,-0.1025829169294581,0,0,70
29.6,-26.51427952678185,9.372819894918916,-10,-0.9815194041765841,0.3650237943709894,0,-0.038225202359379054,-0.10278447165056626,0,0,70
29.65,-26.56340305414384,9.39094252094709,-10,-0.9834172011363798,0.3598795906150278,0,-0.03768650260176912,-0.10298320848346289,0,0,70
29.700000000000003,-26.612620797547084,9.408807689542254,-10,-0.9852880372168367,0.3547255205782977,0,-0.03714676964965317,-0.10317912197967735,0,0,70
29.75,-26.66193140766229,9.426414910921784,-10,-0.9871318611280386,0.34956172556223225,0,-0.03660601830008268,-0.1033722067681422,0,0,70
29.8,-26.71133353261417,9.443763702374811,-10,-0.9889486223206218,0.34438834713488087,0,-0.03606426337802911,-0.10356245755534041,0,0,70
29.85,-26.760825818018507,9.460853588275453,-10,-0.9907382709871599,0.3392055271270263,0,-0.03552151973597731,-0.10374986912545052,0,0,70
29.9,-26.8104069070193,9.477684100095857,-10,-0.9925007580635311,0.3340134076282971,0,-0.034977802253518375,-0.10393443634048967,0,0,70
29.950000000000003,-26.86007544032595,9.494254776419039,-10,-0.9942360352302619,0.328812130983272,0,-0.03443312583694173,-0.10411615414045446,0,0,70
30.0,-26.909830056250527,9.510565162951535,-10,-0.9959440549138517,0.3236018397875778,0,-0.03388750541882652,-0.10429501754345955,0,0,70
30.05,-26.9596693907451,9.526614812535863,-10,-0.997624770288079,0.31838267688397937,0,-0.033340955957632076,-0.10447102164587448,0,0,70
30.1,-27.009592077439134,9.542403285162768,-10,-0.9992781352752821,0.31315478535846447,0,-0.03279349243728802,-0.10464416162245778,0,0,70
30.15,-27.059596747676963,9.557930147983301,-10,-1.0009041045476248,0.3079183085363198,0,-0.03224512986678325,-0.1048144327264896,0,0,70
30.200000000000003,-27.109682030555284,9.573194975320673,-10,-1.0025026335283382,0.3026733899782029,0,-0.0316958832797547,-0.1049818302899016,0,0,70
30.25,-27.159846552960772,9.58819734868193,-10,-1.004073678392943,0.29742017347620553,0,-0.03114576773407497,-0.10514634972340499,0,0,70
30.3,-27.210088939607708,9.602936856769432,-10,-1.0056171960704503,0.29215880304991093,0,-0.030594798311439585,-0.10530798651661644,0,0,70
30.35,-27.260407813075677,9.617413095492113,-10,-1.0071331442445433,0.2868894229424483,0,-0.03004299011695369,-0.10546673623818155,0,0,70
30.4,-27.310801793847343,9.631625667976582,-10,-1.0086214813547372,0.28161217761653456,0,-0.02949035827871763,-0.10562259453589656,0,0,70
30.450000000000003,-27.36126950034627,9.645574184577981,-10,-1.0100821665975181,0.27632721175051606,0,-0.028936917947412412,-0.1057755571368275,0,0,70
30.5,-27.411809548974794,9.659258262890683,-10,-1.0115151599274625,0.2710346702344015,0,-0.028382684295884263,-0.10592561984742736,0,0,70
30.55,-27.462420554151944,9.672677527758768,-10,-1.0129204220583343,0.26573469816589024,0,-0.027827672518728728,-0.1060727785536512,0,0,70
30.6,-27.51310112835145,9.68583161128631,-10,-1.014297914464162,0.2604274408463941,0,-0.027271897831874066,-0.10621702922106865,0,0,70
30.65,-27.563849882139777,9.698720152847468,-10,-1.015647599380296,0.25511304377705296,0,-0.026715375472164026,-0.10635836789497491,0,0,70
30.700000000000003,-27.61466542421419,9.71134279909636,-10,-1.0169694398044422,0.24979165265474734,0,-0.026158120696940255,-0.10649679070049876,0,0,70
30.75,-27.665546361440946,9.723699203976766,-10,-1.0182633994976775,0.24446341336810296,0,-0.0256001487836239,-0.10663229384270909,0,0,70
30.8,-27.71649129889344,9.735789028731602,-10,-1.0195294429854436,0.23912847199349122,0,-0.02504147502929682,-0.10676487360671878,0,0,70
30.85,-27.76749883989049,9.747611941912218,-10,-1.0207675355585188,0.23378697479102445,0,-0.02448211475028215,-0.10689452635778668,0,0,70
30.9,-27.818567586034575,9.759167619387474,-10,-1.0219776432739693,0.22843906820054755,0,-0.0239220832817246,-0.10702124854141708,0,0,70
30.950000000000003,-27.869696137250234,9.770455744352637,-10,-1.023159732956081,0.22308489883762084,0,-0.023361395977169724,-0.1071450366834573,0,0,70
31.0,-27.920883091822407,9.781476007338057,-10,-1.0243137721972686,0.2177246134895016,0,-0.02280006820814318,-0.10726588739019295,0,0,70
31.05,-27.972127046434874,9.792228106217657,-10,-1.0254397293589628,0.21235835911112105,0,-0.02223811536372937,-0.10738379734844077,0,0,70
31.1,-28.02342659620874,9.802711746217218,-10,-1.0265375735724795,0.20698628282105322,0,-0.021675552850149334,-0.10749876332563978,0,0,70
31.15,-28.074780334740925,9.812926639922452,-10,-1.027607274739865,0.20160853189748362,0,-0.021112396090338603,-0.10761078216993959,0,0,70
31.200000000000003,-28.12618685414275,9.822872507286887,-10,-1.0286488035347212,0.19622525377417024,0,-0.020548660523524203,-0.10771985081028701,0,0,70
31.25,-28.177644745078524,9.832549075639546,-10,-1.0296621314030103,0.19083659603640196,0,-0.019984361604801448,-0.10782596625651018,0,0,70
31.3,-28.229152596804166,9.84195607969242,-10,-1.0306472305638368,0.18544270641695312,0,-0.019419514804710294,-0.10792912559940053,0,0,70
31.35,-28.280708997205906,9.85109326154774,-10,-1.03160407401021,0.18004373279203195,0,-0.01885413560881104,-0.10802932601079256,0,0,70
31.4,-28.33231253283898,9.85996037070505,-10,-1.0325326355097826,0.17463982317722776,0,-0.018288239517259976,-0.10812656474364135,0,0,70
31.450000000000003,-28.38396178896639,9.868557164068072,-10,-1.0334328896055724,0.16923112572345278,0,-0.017721842044384328,-0.10822083913209796,0,0,70
31.5,-28.435655349597692,9.876883405951379,-10,-1.0343048116166595,0.1638177887128796,0,-0.017154958718256917,-0.1083121465915824,0,0,70
31.55,-28.487391797527806,9.884938868086836,-10,-1.0351483776388604,0.15839996055487687,0,-0.016587605080270476,-0.10840048461885454,0,0,70
31.6,-28.539169714375888,9.892723329629883,-10,-1.0359635645453866,0.15297778978193988,0,-0.016019796684711533,-0.10848585079208273,0,0,70
31.65,-28.590987680624174,9.900236577165575,-10,-1.0367503499874777,0.14755142504562035,0,-0.015451549098334197,-0.10856824277091023,0,0,70
31.700000000000003,-28.642844275656955,9.907478404714436,-10,-1.037508712395013,0.14212101511244807,0,-0.014882877899933027,-0.10864765829651929,0,0,70
31.75,-28.694738077799485,9.914448613738104,-10,-1.0382386309771046,0.13668670885985432,0,-0.014313798679916175,-0.1087240951916932,0,0,70
31.8,-28.746667664356956,9.921147013144779,-10,-1.0389400857226652,0.13124865527209065,0,-0.013744327039877977,-0.10879755136087584,0,0,70
31.85,-28.79863161165353,9.927573419294456,-10,-1.0396130574009588,0.12580700343614265,0,-0.013174478592171055,-0.1088680247902292,0,0,70
31.9,-28.85062849507133,9.933727656003965,-10,-1.040257527562127,0.12036190253764498,0,-0.012604268959478537,-0.10893551354768868,0,0,70
31.950000000000003,-28.90265688908955,9.939609554551797,-10,-1.0408734785376947,0.11491350185678813,0,-0.01203371377438542,-0.10900001578301584,0,0,70
32.0,-28.954715367323466,9.945218953682733,-10,-1.0414608934410547,0.10946195076423022,0,-0.011462828678950442,-0.10906152972784934,0,0,70
32.05,-29.00680250256361,9.950555699612263,-10,-1.042019756167931,0.10400739871699778,0,-0.010891629324276822,-0.10912005369575332,0,0,70
32.1,-29.058916866814858,9.9556196460308,-10,-1.0425500513968193,0.09854999525439032,0,-0.010320131370083387,-0.10917558608226363,0,0,70
32.15,-29.111057031335584,9.960410654107696,-10,-1.043051764589408,0.09308988999388103,0,-0.009748350484275288,-0.10922812536493183,0,0,70
32.2,-29.163221566676846,9.964928592495044,-10,-1.0435248819909768,0.08762723262701329,0,-0.009176302342514292,-0.10927767010336696,0,0,70
32.25,-29.21540904272155,9.969173337331279,-10,-1.043969390630773,0.08216217291529873,0,-0.008604002627789225,-0.10932421893927496,0,0,70
32.3,-29.267618028723685,9.97314477224458,-10,-1.0443852783223675,0.07669486068610955,0,-0.008031467029985813,-0.10936777059649605,0,0,70
32.35,-29.31984709334752,9.976842788356052,-10,-1.0447725336639893,0.0712254458285725,0,-0.007458711245456704,-0.10940832388103945,0,0,70
32.4,-29.372094804706865,9.980267284282716,-10,-1.045131146038838,0.06575407828945927,0,-0.006885750976591112,-0.10944587768111647,0,0,70
32.45,-29.424359730404326,9.983418166140282,-10,-1.045461105615373,0.060280908069073824,0,-0.006312601931384134,-0.10948043096717064,0,0,70
32.5,-29.476640437570563,9.986295347545738,-10,-1.0457624033475874,0.05480608521714299,0,-0.005739279823006419,-0.10951198279190621,0,0,70
32.55,-29.528935492903575,9.9888987496197,-10,-1.0460350309752509,0.049329759828701046,0,-0.005165800369373203,-0.10954053229031398,0,0,70
32.6,-29.581243462708006,9.991228300988585,-10,-1.0462789810241389,0.04385208203997441,0,-0.004592179292713351,-0.10956607867969499,0,0,70
32.65,-29.633562912934437,9.993283937786563,-10,-1.0464942468062381,0.03837320202426718,0,-0.004018432319138491,-0.10958862125968205,0,0,70
32.7,-29.685892409218717,9.995065603657316,-10,-1.0466808224199287,0.03289326998784212,0,-0.0034445751782116816,-0.10960815941225902,0,0,70
32.75,-29.73823051692127,9.996573249755572,-10,-1.046838702750145,0.027412436165804674,0,-0.0028706236025163707,-0.10962469260177748,0,0,70
32.8,-29.79057580116643,9.997806834748456,-10,-1.046967883468519,0.02193085081798244,0,-0.002296593327224911,-0.10963822037497181,0,0,70
32.85,-29.842926826881797,9.998766324816605,-10,-1.0470683610334954,0.016448664224806276,0,-0.0017225000896672216,-0.10964874236097115,0,0,70
32.9,-29.895282158837542,9.999451693655121,-10,-1.0471401326904315,0.010966026683192102,0,-0.0011483596288995317,-0.10965625827131002,0,0,70
32.95,-29.947640361685803,9.999862922474268,-10,-1.0471831964716707,0.005483088502416494,0,-0.0005741876852724773,-0.10966076789993592,0,0,70
33.0,-29.999999999999996,10.0,-10,-1.0471975511965976,2.966469229913018e-16,0,-3.106479313264969e-17,-0.1096622711232151,0,0,70
33.05,-30.052359638314197,9.999862922474268,-10,-1.0471831964716707,-0.005483088502416599,0,0.0005741876852724884,-0.10966076789993592,0,0,70
33.1,-30.10471784116246,9.999451693655121,-10,-1.0471401326904315,-0.010966026683192208,0,0.0011483596288995427,-0.10965625827131002,0,0,70
33.15,-30.157073173118206,9.998766324816605,-10,-1.0470683610334954,-0.01644866422480638,0,0.0017225000896672325,-0.10964874236097115,0,0,70
33.2,-30.20942419883357,9.997806834748456,-10,-1.046967883468519,-0.021930850817982312,0,0.0022965933272248978,-0.10963822037497181,0,0,70
33.25,-30.26176948307873,9.996573249755572,-10,-1.046838702750145,-0.027412436165804542,0,0.0028706236025163572,-0.10962469260177748,0,0,70
33.3,-30.314107590781283,9.995065603657316,-10,-1.0466808224199287,-0.032893269987842234,0,0.0034445751782116933,-0.10960815941225902,0,0,70
33.35,-30.366437087065563,9.993283937786563,-10,-1.0464942468062381,-0.03837320202426728,0,0.004018432319138502,-0.10958862125968205,0,0,70
33.4,-30.418756537291998,9.991228300988585,-10,-1.0462789810241389,-0.04385208203997452,0,0.004592179292713362,-0.10956607867969499,0,0,70
33.45,-30.47106450709643,9.9888987496197,-10,-1.0460350309752509,-0.04932975982870115,0,0.005165800369373214,-0.10954053229031398,0,0,70
33.5,-30.523359562429437,9.986295347545738,-10,-1.0457624033475874,-0.05480608521714284,0,0.005739279823006404,-0.10951198279190621,0,0,70
33.55,-30.575640269595674,9.983418166140282,-10,-1.045461105615373,-0.0602809080690737,0,0.00631260193138412,-0.10948043096717064,0,0,70
33.6,-30.627905195293135,9.980267284282716,-10,-1.045131146038838,-0.06575407828945938,0,0.006885750976591123,-0.10944587768111647,0,0,70
33.65,-30.68015290665248,9.976842788356052,-10,-1.0447725336639893,-0.07122544582857261,0,0.007458711245456716,-0.10940832388103945,0,0,70
33.7,-30.732381971276318,9.97314477224458,-10,-1.0443852783223675,-0.07669486068610966,0,0.008031467029985823,-0.10936777059649605,0,0,70
33.75,-30.78459095727845,9.969173337331279,-10,-1.043969390630773,-0.08216217291529859,0,0.008604002627789212,-0.10932421893927496,0,0,70
33.8,-30.836778433323154,9.964928592495044,-10,-1.0435248819909768,-0.08762723262701339,0,0.0091763023425143,-0.10927767010336696,0,0,70
33.85,-30.888942968664416,9.960410654107696,-10,-1.043051764589408,-0.09308988999388114,0,0.009748350484275298,-0.10922812536493183,0,0,70
33.9,-30.941083133185142,9.9556196460308,-10,-1.0425500513968193,-0.09854999525439019,0,0.010320131370083373,-0.10917558608226363,0,0,70
33.95,-30.99319749743639,9.950555699612263,-10,-1.042019756167931,-0.10400739871699789,0,0.010891629324276834,-0.10912005369575332,0,0,70
34.0,-31.045284632676534,9.945218953682733,-10,-1.0414608934410547,-0.10946195076423007,0,0.011462828678950428,-0.10906152972784934,0,0,70
34.05,-31.09734311091045,9.939609554551797,-10,-1.0408734785376947,-0.11491350185678821,0,0.01203371377438543,-0.10900001578301584,0,0,70
34.1,-31.149371504928666,9.933727656003965,-10,-1.040257527562127,-0.12036190253764482,0,0.012604268959478523,-0.10893551354768868,0,0,70
34.150000000000006,-31.201368388346474,9.927573419294456,-10,-1.0396130574009588,-0.12580700343614298,0,0.01317447859217109,-0.1088680247902292,0,0,70
34.2,-31.25333233564304,9.921147013144779,-10,-1.0389400857226652,-0.13124865527209054,0,0.013744327039877963,-0.10879755136087584,0,0,70
34.25,-31.305261922200515,9.914448613738106,-10,-1.0382386309771048,-0.13668670885985418,0,0.01431379867991616,-0.10872409519169322,0,0,70
34.3,-31.357155724343045,9.907478404714436,-10,-1.037508712395013,-0.14212101511244818,0,0.014882877899933039,-0.10864765829651929,0,0,70
34.35,-31.40901231937583,9.900236577165575,-10,-1.0367503499874777,-0.14755142504562066,0,0.01545154909833423,-0.10856824277091023,0,0,70
34.400000000000006,-31.460830285624116,9.892723329629883,-10,-1.0359635645453866,-0.15297778978194024,0,0.01601979668471157,-0.10848585079208273,0,0,70
34.45,-31.512608202472194,9.884938868086836,-10,-1.0351483776388604,-0.15839996055487673,0,0.01658760508027046,-0.10840048461885454,0,0,70
34.5,-31.564344650402308,9.876883405951379,-10,-1.0343048116166595,-0.16381778871287947,0,0.017154958718256903,-0.1083121465915824,0,0,70
34.55,-31.61603821103361,9.868557164068072,-10,-1.0334328896055724,-0.16923112572345292,0,0.017721842044384345,-0.10822083913209796,0,0,70
34.6,-31.667687467161024,9.85996037070505,-10,-1.0325326355097826,-0.17463982317722787,0,0.018288239517259986,-0.10812656474364135,0,0,70
34.650000000000006,-31.719291002794098,9.851093261547739,-10,-1.0316040740102097,-0.18004373279203204,0,0.01885413560881105,-0.10802932601079253,0,0,70
34.7,-31.770847403195834,9.84195607969242,-10,-1.0306472305638368,-0.185442706416953,0,0.019419514804710276,-0.10792912559940053,0,0,70
34.75,-31.822355254921472,9.832549075639546,-10,-1.0296621314030103,-0.19083659603640182,0,0.019984361604801434,-0.10782596625651018,0,0,70
34.8,-31.873813145857245,9.822872507286887,-10,-1.0286488035347212,-0.19622525377417013,0,0.02054866052352419,-0.10771985081028701,0,0,70
34.85,-31.925219665259075,9.812926639922452,-10,-1.027607274739865,-0.2016085318974837,0,0.02111239609033861,-0.10761078216993959,0,0,70
34.900000000000006,-31.976573403791264,9.802711746217218,-10,-1.0265375735724795,-0.20698628282105352,0,0.021675552850149365,-0.10749876332563978,0,0,70
34.95,-32.02787295356512,9.792228106217657,-10,-1.0254397293589628,-0.21235835911112094,0,0.022238115363729355,-0.10738379734844077,0,0,70
35.0,-32.079116908177596,9.781476007338057,-10,-1.0243137721972686,-0.21772461348950176,0,0.022800068208143197,-0.10726588739019295,0,0,70
35.05,-32.13030386274977,9.770455744352637,-10,-1.023159732956081,-0.22308489883762087,0,0.023361395977169734,-0.1071450366834573,0,0,70
35.1,-32.181432413965425,9.759167619387474,-10,-1.0219776432739693,-0.22843906820054766,0,0.023922083281724606,-0.10702124854141708,0,0,70
35.150000000000006,-32.232501160109514,9.747611941912218,-10,-1.0207675355585188,-0.23378697479102475,0,0.024482114750282183,-0.10689452635778668,0,0,70
35.2,-32.283508701106555,9.735789028731602,-10,-1.0195294429854436,-0.23912847199349105,0,0.025041475029296805,-0.10676487360671878,0,0,70
35.25,-32.334453638559054,9.723699203976766,-10,-1.0182633994976775,-0.24446341336810284,0,0.025600148783623888,-0.10663229384270909,0,0,70
35.3,-32.385334575785805,9.71134279909636,-10,-1.0169694398044422,-0.2497916526547475,0,0.02615812069694027,-0.10649679070049876,0,0,70
35.35,-32.43615011786022,9.698720152847468,-10,-1.015647599380296,-0.255113043777053,0,0.026715375472164033,-0.10635836789497491,0,0,70
35.400000000000006,-32.48689887164855,9.68583161128631,-10,-1.014297914464162,-0.2604274408463942,0,0.02727189783187408,-0.10621702922106865,0,0,70
35.45,-32.53757944584805,9.672677527758768,-10,-1.0129204220583343,-0.2657346981658901,0,0.027827672518728717,-0.1060727785536512,0,0,70
35.5,-32.588190451025206,9.659258262890683,-10,-1.0115151599274625,-0.2710346702344014,0,0.028382684295884253,-0.10592561984742736,0,0,70
35.55,-32.63873049965373,9.645574184577981,-10,-1.0100821665975181,-0.27632721175051594,0,0.028936917947412405,-0.1057755571368275,0,0,70
35.6,-32.68919820615265,9.63162566797658,-10,-1.008621481354737,-0.28161217761653473,0,0.029490358278717647,-0.10562259453589655,0,0,70
35.650000000000006,-32.73959218692433,9.617413095492113,-10,-1.0071331442445433,-0.2868894229424487,0,0.030042990116953727,-0.10546673623818155,0,0,70
35.7,-32.789911060392285,9.602936856769432,-10,-1.0056171960704503,-0.2921588030499109,0,0.030594798311439575,-0.10530798651661644,0,0,70
35.75,-32.84015344703923,9.58819734868193,-10,-1.004073678392943,-0.2974201734762054,0,0.031145767734074955,-0.10514634972340499,0,0,70
35.8,-32.890317969444716,9.573194975320673,-10,-1.0025026335283382,-0.3026733899782031,0,0.03169588327975471,-0.1049818302899016,0,0,70
35.85,-32.94040325232304,9.557930147983301,-10,-1.0009041045476248,-0.3079183085363199,0,0.03224512986678327,-0.1048144327264896,0,0,70
35.900000000000006,-32.99040792256087,9.542403285162768,-10,-0.9992781352752821,-0.3131547853584646,0,0.03279349243728803,-0.10464416162245778,0,0,70
35.95,-33.0403306092549,9.526614812535863,-10,-0.997624770288079,-0.3183826768839792,0,0.03334095595763206,-0.10447102164587448,0,0,70
36.0,-33.09016994374947,9.510565162951536,-10,-0.9959440549138521,-0.32360183978757767,0,0.03388750541882651,-0.10429501754345957,0,0,70
36.05,-33.13992455967405,9.494254776419039,-10,-0.9942360352302619,-0.32881213098327206,0,0.03443312583694174,-0.10411615414045446,0,0,70
36.1,-33.1895930929807,9.477684100095857,-10,-0.9925007580635311,-0.334013407628297,0,0.03497780225351836,-0.10393443634048967,0,0,70
36.150000000000006,-33.2391741819815,9.460853588275452,-10,-0.9907382709871597,-0.33920552712702656,0,0.035521519735977336,-0.10374986912545049,0,0,70
36.2,-33.28866646738583,9.443763702374811,-10,-0.9889486223206218,-0.34438834713488065,0,0.03606426337802909,-0.10356245755534041,0,0,70
36.25,-33.338068592337706,9.426414910921784,-10,-0.9871318611280386,-0.3495617255622322,0,0.036606018300082664,-0.1033722067681422,0,0,70
36.3,-33.38737920245292,9.408807689542254,-10,-0.9852880372168367,-0.35472552057829776,0,0.03714676964965317,-0.10317912197967735,0,0,70
36.35,-33.43659694585616,9.39094252094709,-10,-0.9834172011363798,-0.3598795906150279,0,0.03768650260176913,-0.10298320848346289,0,0,70
36.400000000000006,-33.48572047321815,9.372819894918914,-10,-0.9815194041765839,-0.36502379437098964,0,0.03822520235937908,-0.10278447165056624,0,0,70
36.45,-33.53474843779257,9.354440308298674,-10,-0.9795946983665118,-0.37015799081523787,0,0.038762854153756986,-0.1025829169294581,0,0,70
36.5,-33.583679495453,9.335804264972017,-10,-0.977643136472945,-0.3752820391911843,0,0.03929944324490738,-0.1023785498458629,0,0,70
36.55,-33.63251230472979,9.31691227585549,-10,-0.975664771998939,-0.380395799020454,0,0.03983495492196926,-0.10217137600260756,0,0,70
36.6,-33.68124552684678,9.297764858882513,-10,-0.9736596591823546,-0.3854991301067377,0,0.04036937450361943,-0.10196140107946758,0,0,70
36.650000000000006,-33.729877825758095,9.2783625389892,-10,-0.9716278529943736,-0.3905918925396363,0,0.04090268733847517,-0.10174863083301158,0,0,70
36.7,-33.77840786818467,9.258705848099948,-10,-0.9695694091379885,-0.3956739466984943,0,0.04143487880549564,-0.10153307109644337,0,0,70
36.75,-33.8268343236509,9.238795325112868,-10,-0.967484384046477,-0.4007451532562307,0,0.04196593431438301,-0.10131472777944193,0,0,70
36.8,-33.87515586452103,9.218631515885006,-10,-0.9653728348818558,-0.40580537318315557,0,0.0424958393059822,-0.10109360686799969,0,0,70
36.85,-33.923371166035615,9.198214973217375,-10,-0.9632348195333115,-0.4108544677507837,0,0.043024579252680224,-0.10086971442425804,0,0,70
36.900000000000006,-33.97147890634781,9.177546256839811,-10,-0.9610703966156151,-0.4158922985356367,0,0.04355213965880431,-0.10064305658634151,0,0,70
36.95,-34.0194777665596,9.156625933395611,-10,-0.9588796254675145,-0.4209187274230382,0,0.04407850606101938,-0.1004136395681892,0,0,70
37.0,-34.067366430758,9.13545457642601,-10,-0.956662566150107,-0.42593361661090245,0,0.04460366402872475,-0.10018146965938451,0,0,70
37.05,-34.11514358605109,9.114032766354454,-10,-0.9544192794451937,-0.4309368286135084,0,0.045127599164449396,-0.09994655322498282,0,0,70
37.1,-34.16280792260402,9.092361090470684,-10,-0.9521498268536127,-0.435928226265272,0,0.04565029710424692,-0.09970889670533677,0,0,70
37.150000000000006,-34.21035813367491,9.07044014291465,-10,-0.9498542705935539,-0.4409076727245044,0,0.04617174351808919,-0.09946850661592002,0,0,70
37.2,-34.257792915650725,9.048270524660195,-10,-0.947532673598851,-0.44587503147716634,0,0.04669192411025945,-0.0992253895471482,0,0,70
37.25,-34.30511096808295,9.025852843498608,-10,-0.945185099517259,-0.4508301663406078,0,0.047210824619743935,-0.09897955216419863,0,0,70
37.3,-34.35231099372327,9.003187714021935,-10,-0.9428116127087065,-0.4557729414673043,0,0.04772843082062313,-0.09873100120682726,0,0,70
37.35,-34.39939169855915,8.980275757606156,-10,-0.9404122782435338,-0.4607032213485784,0,0.04824472852246155,-0.09847974348918422,0,0,70
37.400000000000006,-34.446351791849274,8.957117602394128,-10,-0.9379871619007072,-0.4656208708183166,0,0.04875970357069685,-0.09822578589962672,0,0,70
37.45,-34.49318998615897,8.933713883278374,-10,-0.9355363301660161,-0.4705257550566746,0,0.049273341847027974,-0.09796913540053037,0,0,70
37.5,-34.53990499739547,8.910065241883679,-10,-0.933059850230251,-0.4754177395937729,0,0.049785629269802074,-0.0977097990280983,0,0,70
37.55,-34.586495544843146,8.886172326549488,-10,-0.9305577899873597,-0.4802966903133851,0,0.050296551794400755,-0.0974477838921681,0,0,70
37.6,-34.63296035119862,8.862035792312145,-10,-0.9280302180325879,-0.48516247345661234,0,0.05080609541362488,-0.09718309717601706,0,0,70
37.650000000000006,-34.67929814260574,8.837656300886932,-10,-0.9254772036605978,-0.49001495562555153,0,0.0513142461580787,-0.09691574613616528,0,0,70
37.7,-34.725507648690545,8.813034520649921,-10,-0.922898816863568,-0.49485400378695293,0,0.051820990096552895,-0.09664573810217657,0,0,70
37.75,-34.771587602596085,8.788171126619654,-10,-0.9202951283292747,-0.49967948527586636,0,0.05232631333640637,-0.09637308047645751,0,0,70
37.8,-34.81753674101715,8.763066800438635,-10,-0.9176662094391543,-0.5044912677992801,0,0.052830202023947316,-0.09609778073405466,0,0,70
37.85,-34.863353804234904,8.737722230354652,-10,-0.9150121322663466,-0.5092892194397449,0,0.053332642344812754,-0.09581984642244955,0,0,70
37.900000000000006,-34.90903753615141,8.712138111201895,-10,-0.9123329695737177,-0.5140732086589934,0,0.05383362052434755,-0.09553928516135173,0,0,70
37.95,-34.95458668432408,8.686315144381911,-10,-0.9096287948118659,-0.5188431043015442,0,0.054333122827981806,-0.09525610464248985,0,0,70
38.0,-35.0,8.660254037844387,-10,-0.9068996821171089,-0.5235987755982987,0,0.05483113556160753,-0.09497031262940095,0,0,70
38.05,-35.045276238150194,8.633955506067718,-10,-0.9041457063094496,-0.5283400921701263,0,0.055327645071954104,-0.09468191695721738,0,0,70
38.1,-35.090414157503716,8.607420270039437,-10,-0.9013669428905257,-0.5330669240314381,0,0.05582263774696247,-0.09439092553245221,0,0,70
38.150000000000006,-35.1354125205817,8.580649057236444,-10,-0.8985634680415399,-0.5377791415937506,0,0.05631610001615841,-0.09409734633278229,0,0,70
38.2,-35.1802700937313,8.553642601605064,-10,-0.8957353586211718,-0.5424766156692391,0,0.05680801835102451,-0.09380118740682974,0,0,70
38.25,-35.224985647159485,8.526401643540924,-10,-0.89288269216347,-0.5471592174742786,0,0.057298379265371124,-0.09350245687394115,0,0,70
38.3,-35.26955795496677,8.498926929868638,-10,-0.8900055468757256,-0.5518268186329759,0,0.057787169315706134,-0.09320116292396487,0,0,70
38.35,-35.31398579518083,8.47121921382137,-10,-0.8871040016363307,-0.556479291180687,0,0.05827437510160339,-0.09289731381702682,0,0,70
38.400000000000006,-35.35826794978997,8.44327925502015,-10,-0.8841781359926134,-0.5611165075675271,0,0.05875998326607014,-0.0925909178833037,0,0,70
38.45,-35.402403204776554,8.415107819453059,-10,-0.8812280301586585,-0.5657383406618659,0,0.05924398049591325,-0.09228198352279487,0,0,70
38.5,-35.44639035015027,8.386705679454243,-10,-0.8782537650131081,-0.570344663753814,0,0.0597263535221041,-0.0919705192050919,0,0,70
38.55,-35.490228179981315,8.358073613682702,-10,-0.8752554220969423,-0.574935350558699,0,0.060207089120142714,-0.09165653346914626,0,0,70
38.6,-35.533915492433444,8.329212407100993,-10,-0.8722330836112479,-0.5795102752205216,0,0.06068617411041967,-0.09134003492303559,0,0,70
38.650000000000006,-35.5774510897969,8.300122850953676,-10,-0.8691868324149612,-0.5840693123154109,0,0.06116359535857792,-0.0910210322437275,0,0,70
38.7,-35.62083377852131,8.270805742745615,-10,-0.8661167520225966,-0.5886123368550636,0,0.06163933977587295,-0.0906995341768414,0,0,70
38.75,-35.66406236924833,8.241261886220157,-10,-0.8630229266019602,-0.5931392242901652,0,0.06211339431953105,-0.09037554953640939,0,0,70
38.8,-35.70713567684432,8.21149209133704,-10,-0.8599054409718379,-0.5976498505138105,0,0.0625857459931075,-0.0900490872046339,0,0,70
38.85,-35.75005252043279,8.181497174250234,-10,-0.8567643805996729,-0.6021440918649038,0,0.06305638184684265,-0.08972015613164473,0,0,70
38.900000000000006,-35.79281172342679,8.151277957285542,-10,-0.8535998315992225,-0.6066218251315476,0,0.06352528897801674,-0.08938876533525339,0,0,70
38.95,-35.835412113561176,8.12083526891806,-10,-0.8504118807281957,-0.6110829275544227,0,0.06399245453130394,-0.08905492390070596,0,0,70
39.0,-35.87785252292473,8.090169943749475,-10,-0.8472006153858767,-0.6155272768301521,0,0.06445786569912457,-0.08871864098043407,0,0,70
39.05,-35.9201317879922,8.059282822485157,-10,-0.843966123610726,-0.6199547511146563,0,0.06492150972199642,-0.08837992579380374,0,0,70
39.1,-35.962248749656155,8.028174751911145,-10,-0.8407084940779704,-0.6243652290264907,0,0.06538337388888439,-0.088038787626863,0,0,70
39.150000000000006,-36.00420225325884,7.996846584870903,-10,-0.8374278160971685,-0.6287585896501754,0,0.06584344553754902,-0.08769523583208697,0,0,70
39.2,-36.04599114862375,7.9652991802419635,-10,-0.834124179609765,-0.6331347125395095,0,0.06630171205489362,-0.08734927982812171,0,0,70
39.25,-36.0876142900872,7.933533402912351,-10,-0.8307976751866224,-0.6374934777208737,0,0.06675816087731018,-0.08700092909952575,0,0,70
39.3,-36.12907053652977,7.901550123756903,-10,-0.8274483940255402,-0.6418347656965189,0,0.06721277949102365,-0.08665019319651032,0,0,70
39.35,-36.170358751407484,7.8693502196133736,-10,-0.8240764279487534,-0.6461584574478415,0,0.06766555543243506,-0.0862970817346774,0,0,70
39.400000000000006,-36.21147780278311,7.836934573258395,-10,-0.8206818694004145,-0.6504644344386492,0,0.06811647628846333,-0.085941604394756,0,0,70
39.45,-36.25242656335705,7.804304073383297,-10,-0.817264811444062,-0.6547525786184064,0,0.06856552969688529,-0.08558377092233711,0,0,70
39.5,-36.29320391049838,7.77145961456971,-10,-0.8138253477600655,-0.6590227724254749,0,0.06901270334667499,-0.08522359112760602,0,0,70
39.55,-36.33380872627551,7.738402097265061,-10,-0.8103635726430588,-0.6632748987903349,0,0.06945798497834099,-0.08486107488507373,0,0,70
39.6,-36.3742398974869,7.705132427757892,-10,-0.806879580999356,-0.6675088411387932,0,0.06990136238426228,-0.08449623213330625,0,0,70
39.650000000000006,-36.41449631569158,7.671651518152995,-10,-0.8033734683443476,-0.6717244833951821,0,0.07034282340902343,-0.08412907287465184,0,0,70
39.7,-36.454576877239504,7.63796028634642,-10,-0.7998453307998835,-0.6759217099855395,0,0.07078235594974738,-0.08375960717496707,0,0,70
39.75,-36.494480483301835,7.60405965600031,-10,-0.7962952650916368,-0.6801004058407778,0,0.07121994795642748,-0.08338784516334077,0,0,70
39.8,-36.53420603990105,7.569950556517564,-10,-0.7927233685464514,-0.6842604563998403,0,0.0716555874322579,-0.0830137970318162,0,0,70
39.85,-36.573752457940955,7.535633923016379,-10,-0.7891297390896762,-0.6884017476128387,0,0.0720892624339623,-0.0826374730351119,0,0,70
39.900000000000006,-36.61311865323652,7.501110696304593,-10,-0.7855144752424776,-0.6925241659441828,0,0.07252096107212144,-0.0822588834903403,0,0,70
39.95,-36.65230354654361,7.466381822853911,-10,-0.7818776761191406,-0.6966275983756912,0,0.07295067151149909,-0.08187803877672505,0,0,70
40.0,-36.69130606358858,7.431448254773945,-10,-0.7782194414243505,-0.7007119324096905,0,0.07337838197136638,-0.08149494933531638,0,0,70
40.05,-36.73012513509773,7.396310949786099,-10,-0.7745398714504586,-0.7047770560721016,0,0.0738040807258252,-0.08110962566870478,0,0,70
40.1,-36.768759696826606,7.360970871197341,-10,-0.7708390670747342,-0.7088228579155051,0,0.07422775610412909,-0.08072207834073315,0,0,70
40.150000000000006,-36.807208689589174,7.325428987873788,-10,-0.7671171297566002,-0.7128492270221988,0,0.07464939649100341,-0.08033231797620743,0,0,70
40.2,-36.845471059286886,7.289686274214114,-10,-0.763374161534847,-0.7168560530072409,0,0.0750689903269641,-0.07994035526060478,0,0,70
40.25,-36.883545756937544,7.253743710122875,-10,-0.7596102650248399,-0.7208432260214724,0,0.07548652610863416,-0.07954620093978108,0,0,70
40.3,-36.921431738704065,7.217602280983622,-10,-0.7558255434157027,-0.7248106367545308,0,0.07590199238905913,-0.07914986581967617,0,0,70
40.35,-36.959127965923145,7.181262977631889,-10,-0.7520201004674901,-0.7287581764378476,0,0.07631537777802119,-0.0787513607660175,0,0,70
40.400000000000006,-36.99663340513366,7.144726796328032,-10,-0.7481940405083428,-0.7326857368476277,0,0.07672667094235106,-0.07835069670402246,0,0,70
40.45,-37.03394702810504,7.107994738729922,-10,-0.7443474684316275,-0.7365932103078185,0,0.07713586060623881,-0.0779478846180987,0,0,70
40.5,-37.071067811865476,7.0710678118654755,-10,-0.740480489693061,-0.7404804896930609,0,0.0775429355515431,-0.0775429355515431,0,0,70
40.55,-37.10799473872992,7.033947028105042,-10,-0.7365932103078187,-0.7443474684316274,0,0.0779478846180987,-0.07713586060623882,0,0,70
40.6,-37.14472679632804,6.996633405133653,-10,-0.7326857368476275,-0.7481940405083432,0,0.0783506967040225,-0.07672667094235103,0,0,70
40.650000000000006,-37.18126297763189,6.959127965923141,-10,-0.7287581764378472,-0.7520201004674903,0,0.07875136076601753,-0.07631537777802118,0,0,70
40.7,-37.21760228098362,6.921431738704068,-10,-0.724810636754531,-0.7558255434157026,0,0.07914986581967616,-0.07590199238905915,0,0,70
40.75,-37.253743710122876,6.883545756937539,-10,-0.7208432260214721,-0.7596102650248399,0,0.07954620093978108,-0.07548652610863413,0,0,70
40.8,-37.28968627421412,6.845471059286885,-10,-0.7168560530072405,-0.7633741615348473,0,0.07994035526060482,-0.07506899032696407,0,0,70
40.85,-37.325428987873785,6.80720868958918,-10,-0.712849227022199,-0.7671171297566002,0,0.08033231797620743,-0.07464939649100343,0,0,70
40.900000000000006,-37.360970871197345,6.768759696826604,-10,-0.7088228579155044,-0.7708390670747348,0,0.08072207834073322,-0.07422775610412902,0,0,70
40.95,-37.3963109497861,6.730125135097733,-10,-0.7047770560721017,-0.7745398714504584,0,0.08110962566870476,-0.07380408072582521,0,0,70
41.0,-37.43144825477394,6.691306063588583,-10,-0.700711932409691,-0.77821944142435,0,0.08149494933531634,-0.07337838197136644,0,0,70
41.05,-37.46638182285391,6.65230354654361,-10,-0.6966275983756911,-0.7818776761191406,0,0.08187803877672506,-0.07295067151149906,0,0,70
41.1,-37.50111069630459,6.613118653236518,-10,-0.6925241659441823,-0.7855144752424779,0,0.08225888349034033,-0.07252096107212141,0,0,70
41.150000000000006,-37.53563392301638,6.573752457940957,-10,-0.6884017476128385,-0.7891297390896763,0,0.08263747303511192,-0.07208926243396228,0,0,70
41.2,-37.56995055651757,6.534206039901052,-10,-0.6842604563998401,-0.7927233685464519,0,0.08301379703181624,-0.07165558743225788,0,0,70
41.25,-37.60405965600031,6.494480483301838,-10,-0.680100405840778,-0.7962952650916367,0,0.08338784516334076,-0.0712199479564275,0,0,70
41.3,-37.63796028634643,6.454576877239505,-10,-0.6759217099855392,-0.7998453307998837,0,0.0837596071749671,-0.07078235594974737,0,0,70
41.35,-37.671651518153,6.4144963156915775,-10,-0.6717244833951818,-0.803373468344348,0,0.08412907287465185,-0.07034282340902341,0,0,70
41.400000000000006,-37.70513242775789,6.374239897486898,-10,-0.6675088411387933,-0.806879580999356,0,0.08449623213330623,-0.0699013623842623,0,0,70
41.45,-37.738402097265066,6.333808726275498,-10,-0.6632748987903343,-0.8103635726430591,0,0.08486107488507377,-0.06945798497834092,0,0,70
41.5,-37.77145961456971,6.293203910498374,-10,-0.6590227724254749,-0.8138253477600654,0,0.085223591127606,-0.06901270334667502,0,0,70
41.55,-37.80430407338329,6.252426563357054,-10,-0.6547525786184066,-0.817264811444062,0,0.08558377092233709,-0.06856552969688533,0,0,70
41.6,-37.836934573258404,6.211477802783102,-10,-0.6504644344386487,-0.820681869400415,0,0.08594160439475607,-0.06811647628846329,0,0,70
41.650000000000006,-37.869350219613374,6.170358751407487,-10,-0.6461584574478416,-0.8240764279487532,0,0.08629708173467739,-0.06766555543243508,0,0,70
41.7,-37.901550123756905,6.129070536529763,-10,-0.6418347656965185,-0.8274483940255403,0,0.08665019319651032,-0.06721277949102362,0,0,70
41.75,-37.93353340291235,6.087614290087204,-10,-0.6374934777208735,-0.8307976751866227,0,0.08700092909952577,-0.06675816087731015,0,0,70
41.8,-37.96529918024196,6.04599114862375,-10,-0.6331347125395096,-0.834124179609765,0,0.0873492798281217,-0.06630171205489362,0,0,70
41.85,-37.99684658487091,6.00420225325884,-10,-0.6287585896501752,-0.8374278160971688,0,0.08769523583208699,-0.06584344553754898,0,0,70
41.900000000000006,-38.028174751911145,5.962248749656157,-10,-0.6243652290264905,-0.8407084940779704,0,0.088038787626863,-0.06538337388888438,0,0,70
41.95,-38.05928282248516,5.920131787992194,-10,-0.6199547511146561,-0.8439661236107263,0,0.08837992579380376,-0.0649215097219964,0,0,70
42.0,-38.09016994374947,5.877852522924733,-10,-0.6155272768301523,-0.8472006153858764,0,0.08871864098043404,-0.06445786569912458,0,0,70
42.05,-38.120835268918064,5.8354121135611745,-10,-0.6110829275544224,-0.8504118807281958,0,0.08905492390070599,-0.06399245453130391,0,0,70
42.1,-38.151277957285544,5.792811723426787,-10,-0.6066218251315475,-0.8535998315992226,0,0.08938876533525342,-0.06352528897801672,0,0,70
42.150000000000006,-38.18149717425024,5.750052520432783,-10,-0.6021440918649036,-0.8567643805996731,0,0.08972015613164475,-0.06305638184684262,0,0,70
42.2,-38.21149209133704,5.707135676844317,-10,-0.5976498505138106,-0.8599054409718379,0,0.0900490872046339,-0.06258574599310751,0,0,70
42.25,-38.24126188622016,5.664062369248332,-10,-0.5931392242901653,-0.86302292660196,0,0.09037554953640935,-0.06211339431953106,0,0,70
42.3,-38.27080574274562,5.6208337785213045,-10,-0.5886123368550629,-0.866116752022597,0,0.09069953417684144,-0.06163933977587288,0,0,70
42.35,-38.30012285095367,5.577451089796903,-10,-0.5840693123154111,-0.869186832414961,0,0.09102103224372747,-0.061163595358577946,0,0,70
42.400000000000006,-38.329212407101,5.533915492433441,-10,-0.5795102752205213,-0.8722330836112481,0,0.09134003492303563,-0.060686174110419634,0,0,70
42.45,-38.358073613682706,5.4902281799813135,-10,-0.5749353505586985,-0.8752554220969427,0,0.0916565334691463,-0.06020708912014266,0,0,70
42.5,-38.38670567945424,5.446390350150273,-10,-0.5703446637538147,-0.8782537650131078,0,0.09197051920509186,-0.05972635352210416,0,0,70
42.55,-38.41510781945306,5.402403204776551,-10,-0.5657383406618656,-0.8812280301586586,0,0.09228198352279489,-0.059243980495913215,0,0,70
42.6,-38.44327925502015,5.358267949789962,-10,-0.5611165075675262,-0.8841781359926137,0,0.09259091788330376,-0.05875998326607007,0,0,70
42.650000000000006,-38.47121921382137,5.313985795180828,-10,-0.5564792911806867,-0.8871040016363307,0,0.09289731381702682,-0.05827437510160336,0,0,70
42.7,-38.498926929868645,5.269557954966774,-10,-0.5518268186329757,-0.890005546875726,0,0.0932011629239649,-0.05778716931570612,0,0,70
42.75,-38.52640164354092,5.224985647159489,-10,-0.5471592174742788,-0.8928826921634699,0,0.09350245687394114,-0.05729837926537113,0,0,70
42.8,-38.55364260160506,5.180270093731302,-10,-0.5424766156692389,-0.895735358621172,0,0.09380118740682976,-0.05680801835102448,0,0,70
42.85,-38.58064905723644,5.1354125205817,-10,-0.5377791415937504,-0.8985634680415402,0,0.0940973463327823,-0.05631610001615838,0,0,70
42.900000000000006,-38.607420270039434,5.090414157503714,-10,-0.5330669240314382,-0.9013669428905255,0,0.0943909255324522,-0.05582263774696248,0,0,70
42.95,-38.63395550606772,5.045276238150189,-10,-0.528340092170126,-0.9041457063094496,0,0.09468191695721738,-0.05532764507195407,0,0,70
43.0,-38.66025403784439,4.999999999999999,-10,-0.5235987755982987,-0.9068996821171089,0,0.09497031262940095,-0.054831135561607534,0,0,70
43.05,-38.68631514438191,4.954586684324077,-10,-0.5188431043015445,-0.9096287948118659,0,0.09525610464248985,-0.054333122827981827,0,0,70
43.1,-38.712138111201895,4.909037536151406,-10,-0.5140732086589932,-0.9123329695737177,0,0.09553928516135173,-0.05383362052434752,0,0,70
43.150000000000006,-38.737722230354656,4.863353804234902,-10,-0.5092892194397447,-0.9150121322663468,0,0.09581984642244956,-0.05333264234481273,0,0,70
43.2,-38.76306680043864,4.817536741017152,-10,-0.50449126779928,-0.9176662094391544,0,0.09609778073405467,-0.0528302020239473,0,0,70
43.25,-38.78817112661965,4.771587602596086,-10,-0.49967948527586653,-0.9202951283292744,0,0.0963730804764575,-0.052326313336406395,0,0,70
43.3,-38.81303452064992,4.725507648690537,-10,-0.49485400378695227,-0.9228988168635681,0,0.09664573810217658,-0.05182099009655283,0,0,70
43.35,-38.837656300886934,4.679298142605734,-10,-0.49001495562555125,-0.9254772036605979,0,0.0969157461361653,-0.051314246158078676,0,0,70
43.400000000000006,-38.86203579231215,4.632960351198616,-10,-0.48516247345661195,-0.928030218032588,0,0.0971830971760171,-0.05080609541362484,0,0,70
43.45,-38.88617232654949,4.586495544843148,-10,-0.48029669031338496,-0.9305577899873598,0,0.09744778389216811,-0.05029655179440074,0,0,70
43.5,-38.91006524188368,4.539904997395468,-10,-0.4754177395937731,-0.933059850230251,0,0.0977097990280983,-0.049785629269802095,0,0,70
43.55,-38.93371388327837,4.493189986158966,-10,-0.47052575505667443,-0.9355363301660162,0,0.09796913540053039,-0.04927334184702796,0,0,70
43.6,-38.95711760239413,4.446351791849278,-10,-0.46562087081831677,-0.9379871619007072,0,0.09822578589962672,-0.048759703570696866,0,0,70
43.650000000000006,-38.98027575760616,4.399391698559149,-10,-0.4607032213485781,-0.9404122782435339,0,0.09847974348918423,-0.04824472852246151,0,0,70
43.7,-39.003187714021934,4.352310993723272,-10,-0.45577294146730407,-0.9428116127087066,0,0.09873100120682728,-0.04772843082062311,0,0,70
43.75,-39.025852843498605,4.305110968082955,-10,-0.45083016634060846,-0.9451850995172587,0,0.09897955216419858,-0.047210824619744,0,0,70
43.8,-39.0482705246602,4.257792915650725,-10,-0.4458750314771661,-0.9475326735988513,0,0.09922538954714821,-0.04669192411025943,0,0,70
43.85,-39.07044014291465,4.210358133674907,-10,-0.440907672724504,-0.9498542705935539,0,0.09946850661592002,-0.046171743518089156,0,0,70
43.900000000000006,-39.09236109047069,4.162807922604012,-10,-0.4359282262652717,-0.9521498268536129,0,0.0997088967053368,-0.04565029710424689,0,0,70
43.95,-39.114032766354455,4.115143586051083,-10,-0.43093682861350796,-0.9544192794451939,0,0.09994655322498283,-0.04512759916444935,0,0,70
44.0,-39.135454576426014,4.067366430758001,-10,-0.42593361661090245,-0.956662566150107,0,0.10018146965938451,-0.04460366402872475,0,0,70
44.05,-39.15662593339561,4.019477766559603,-10,-0.4209187274230386,-0.9588796254675143,0,0.10041363956818918,-0.04407850606101942,0,0,70
44.1,-39.17754625683981,3.971478906347806,-10,-0.4158922985356365,-0.9610703966156151,0,0.10064305658634151,-0.043552139658804286,0,0,70
44.150000000000006,-39.198214973217375,3.923371166035614,-10,-0.41085446775078355,-0.9632348195333116,0,0.10086971442425806,-0.0430245792526802,0,0,70
44.2,-39.21863151588501,3.8751558645210276,-10,-0.40580537318315546,-0.9653728348818558,0,0.10109360686799969,-0.042495839305982185,0,0,70
44.25,-39.23879532511287,3.826834323650899,-10,-0.400745153256231,-0.967484384046477,0,0.10131472777944193,-0.04196593431438303,0,0,70
44.3,-39.25870584809995,3.7784078681846713,-10,-0.3956739466984945,-0.9695694091379882,0,0.10153307109644334,-0.04143487880549566,0,0,70
44.35,-39.2783625389892,3.729877825758088,-10,-0.39059189253963594,-0.9716278529943736,0,0.10174863083301158,-0.040902687338475144,0,0,70
44.400000000000006,-39.297764858882516,3.6812455268467814,-10,-0.38549913010673786,-0.9736596591823546,0,0.10196140107946758,-0.04036937450361945,0,0,70
44.45,-39.31691227585549,3.6325123047297803,-10,-0.3803957990204535,-0.9756647719989391,0,0.10217137600260759,-0.0398349549219692,0,0,70
44.5,-39.33580426497202,3.5836794954530022,-10,-0.37528203919118425,-0.977643136472945,0,0.1023785498458629,-0.039299443244907376,0,0,70
44.55,-39.35444030829867,3.534748437792574,-10,-0.3701579908152383,-0.9795946983665116,0,0.10258291692945806,-0.03876285415375702,0,0,70
44.6,-39.37281989491891,3.4857204732181533,-10,-0.3650237943709896,-0.9815194041765839,0,0.10278447165056624,-0.038225202359379075,0,0,70
44.650000000000006,-39.39094252094709,3.4365969458561567,-10,-0.3598795906150274,-0.9834172011363799,0,0.1029832084834629,-0.03768650260176908,0,0,70
44.7,-39.40880768954226,3.3873792024529132,-10,-0.3547255205782975,-0.9852880372168367,0,0.10317912197967735,-0.03714676964965315,0,0,70
44.75,-39.426414910921785,3.338068592337712,-10,-0.34956172556223264,-0.9871318611280386,0,0.1033722067681422,-0.03660601830008271,0,0,70
44.8,-39.44376370237481,3.2886664673858297,-10,-0.34438834713488065,-0.9889486223206218,0,0.10356245755534041,-0.03606426337802908,0,0,70
44.85,-39.460853588275455,3.2391741819814945,-10,-0.33920552712702634,-0.9907382709871599,0,0.10374986912545052,-0.03552151973597731,0,0,70
44.900000000000006,-39.47768410009586,3.1895930929806986,-10,-0.33401340762829695,-0.9925007580635311,0,0.10393443634048967,-0.034977802253518354,0,0,70
44.95,-39.49425477641904,3.1399245596740517,-10,-0.3288121309832722,-0.9942360352302617,0,0.10411615414045443,-0.03443312583694176,0,0,70
45.0,-39.510565162951536,3.090169943749475,-10,-0.32360183978757784,-0.9959440549138517,0,0.10429501754345955,-0.03388750541882652,0,0,70
45.05,-39.52661481253586,3.0403306092549025,-10,-0.3183826768839794,-0.997624770288079,0,0.10447102164587448,-0.03334095595763208,0,0,70
45.1,-39.54240328516277,2.9904079225608697,-10,-0.31315478535846475,-0.9992781352752821,0,0.10464416162245778,-0.032793492437288047,0,0,70
45.150000000000006,-39.5579301479833,2.940403252323037,-10,-0.30791830853631963,-1.000904104547625,0,0.10481443272648963,-0.03224512986678323,0,0,70
45.2,-39.573194975320675,2.8903179694447125,-10,-0.30267338997820253,-1.0025026335283382,0,0.1049818302899016,-0.03169588327975466,0,0,70
45.25,-39.58819734868193,2.8401534470392304,-10,-0.2974201734762058,-1.0040736783929427,0,0.10514634972340497,-0.031145767734074997,0,0,70
45.3,-39.60293685676943,2.789911060392291,-10,-0.29215880304991104,-1.00561719607045,0,0.10530798651661641,-0.030594798311439596,0,0,70
45.35,-39.61741309549211,2.7395921869243223,-10,-0.28688942294244824,-1.0071331442445433,0,0.10546673623818156,-0.030042990116953678,0,0,70
45.400000000000006,-39.63162566797658,2.689198206152658,-10,-0.2816121776165347,-1.008621481354737,0,0.10562259453589655,-0.029490358278717644,0,0,70
45.45,-39.64557418457798,2.638730499653728,-10,-0.2763272117505159,-1.0100821665975181,0,0.1057755571368275,-0.02893691794741239,0,0,70
45.5,-39.65925826289068,2.5881904510252056,-10,-0.2710346702344013,-1.0115151599274625,0,0.10592561984742736,-0.028382684295884242,0,0,70
45.55,-39.672677527758765,2.5375794458480576,-10,-0.2657346981658905,-1.012920422058334,0,0.10607277855365117,-0.027827672518728763,0,0,70
45.6,-39.68583161128631,2.486898871648548,-10,-0.26042744084639413,-1.014297914464162,0,0.10621702922106865,-0.027271897831874076,0,0,70
45.650000000000006,-39.69872015284747,2.4361501178602243,-10,-0.25511304377705296,-1.015647599380296,0,0.10635836789497491,-0.02671537547216403,0,0,70
45.7,-39.71134279909636,2.385334575785807,-10,-0.2497916526547472,-1.0169694398044422,0,0.10649679070049876,-0.02615812069694024,0,0,70
45.75,-39.723699203976764,2.3344536385590553,-10,-0.244463413368103,-1.0182633994976775,0,0.10663229384270909,-0.02560014878362391,0,0,70
45.8,-39.7357890287316,2.2835087011065616,-10,-0.23912847199349146,-1.0195294429854436,0,0.10676487360671878,-0.02504147502929685,0,0,70
45.85,-39.74761194191222,2.2325011601095124,-10,-0.2337869747910245,-1.0207675355585188,0,0.10689452635778668,-0.024482114750282155,0,0,70
45.900000000000006,-39.759167619387476,2.1814324139654233,-10,-0.2284390682005474,-1.0219776432739693,0,0.10702124854141708,-0.02392208328172458,0,0,70
45.95,-39.77045574435264,2.130303862749767,-10,-0.22308489883762087,-1.023159732956081,0,0.1071450366834573,-0.023361395977169734,0,0,70
46.0,-39.78147600733806,2.079116908177593,-10,-0.2177246134895017,-1.0243137721972686,0,0.10726588739019295,-0.022800068208143193,0,0,70
46.05,-39.79222810621766,2.027872953565123,-10,-0.2123583591111209,-1.0254397293589628,0,0.10738379734844078,-0.022238115363729348,0,0,70
46.1,-39.80271174621722,1.9765734037912632,-10,-0.20698628282105347,-1.0265375735724795,0,0.10749876332563978,-0.02167555285014936,0,0,70
46.150000000000006,-39.81292663992245,1.9252196652590705,-10,-0.2016085318974832,-1.027607274739865,0,0.10761078216993959,-0.02111239609033856,0,0,70
46.2,-39.82287250728689,1.8738131458572458,-10,-0.1962252537741701,-1.0286488035347212,0,0.10771985081028701,-0.020548660523524186,0,0,70
46.25,-39.83254907563955,1.8223552549214772,-10,-0.19083659603640227,-1.02966213140301,0,0.10782596625651017,-0.01998436160480148,0,0,70
46.3,-39.84195607969242,1.7708474031958343,-10,-0.18544270641695318,-1.0306472305638368,0,0.10792912559940053,-0.019419514804710297,0,0,70
46.35,-39.85109326154774,1.7192910027940957,-10,-0.18004373279203198,-1.0316040740102097,0,0.10802932601079253,-0.018854135608811048,0,0,70
46.400000000000006,-39.85996037070505,1.6676874671610218,-10,-0.17463982317722784,-1.0325326355097826,0,0.10812656474364135,-0.018288239517259983,0,0,70
46.45,-39.86855716406807,1.6160382110336093,-10,-0.1692311257234526,-1.033432889605573,0,0.10822083913209797,-0.017721842044384314,0,0,70
46.5,-39.876883405951375,1.5643446504023097,-10,-0.16381778871287966,-1.0343048116166593,0,0.10831214659158239,-0.01715495871825692,0,0,70
46.55,-39.884938868086834,1.512608202472192,-10,-0.1583999605548767,-1.0351483776388604,0,0.10840048461885454,-0.016587605080270455,0,0,70
46.6,-39.89272332962988,1.4608302856241149,-10,-0.15297778978193993,-1.0359635645453866,0,0.10848585079208273,-0.016019796684711544,0,0,70
46.650000000000006,-39.90023657716558,1.4090123193758242,-10,-0.14755142504562013,-1.036750349987478,0,0.10856824277091025,-0.015451549098334176,0,0,70
46.7,-39.90747840471444,1.3571557243430403,-10,-0.14212101511244765,-1.0375087123950133,0,0.10864765829651932,-0.014882877899932985,0,0,70
46.75,-39.9144486137381,1.3052619222005157,-10,-0.1366867088598544,-1.0382386309771046,0,0.1087240951916932,-0.014313798679916183,0,0,70
46.8,-39.921147013144775,1.2533323356430452,-10,-0.13124865527209092,-1.0389400857226652,0,0.10879755136087582,-0.013744327039878004,0,0,70
46.85,-39.927573419294454,1.2013683883464683,-10,-0.12580700343614248,-1.0396130574009588,0,0.1088680247902292,-0.013174478592171036,0,0,70
46.900000000000006,-39.93372765600397,1.1493715049286666,-10,-0.12036190253764478,-1.040257527562127,0,0.10893551354768868,-0.012604268959478518,0,0,70
46.95,-39.939609554551794,1.0973431109104521,-10,-0.1149135018567882,-1.0408734785376947,0,0.10900001578301584,-0.012033713774385429,0,0,70
47.0,-39.94521895368273,1.0452846326765328,-10,-0.10946195076423003,-1.0414608934410547,0,0.10906152972784934,-0.011462828678950423,0,0,70
47.05,-39.950555699612266,0.9931974974363916,-10,-0.10400739871699784,-1.042019756167931,0,0.10912005369575332,-0.010891629324276831,0,0,70
47.1,-39.9556196460308,0.9410831331851435,-10,-0.09854999525439039,-1.0425500513968193,0,0.10917558608226363,-0.010320131370083394,0,0,70
47.150000000000006,-39.9604106541077,0.8889429686644099,-10,-0.09308988999388039,-1.0430517645894082,0,0.10922812536493184,-0.009748350484275222,0,0,70
47.2,-39.96492859249504,0.8367784333231529,-10,-0.08762723262701312,-1.0435248819909768,0,0.10927767010336696,-0.009176302342514276,0,0,70
47.25,-39.96917333733128,0.7845909572784506,-10,-0.08216217291529879,-1.043969390630773,0,0.10932421893927496,-0.008604002627789233,0,0,70
47.3,-39.97314477224458,0.7323819712763169,-10,-0.07669486068610959,-1.0443852783223675,0,0.10936777059649605,-0.008031467029985818,0,0,70
47.35,-39.97684278835605,0.6801529066524804,-10,-0.07122544582857256,-1.0447725336639893,0,0.10940832388103945,-0.007458711245456711,0,0,70
47.400000000000006,-39.98026728428272,0.6279051952931314,-10,-0.06575407828945887,-1.045131146038838,0,0.10944587768111647,-0.00688575097659107,0,0,70
47.45,-39.98341816614028,0.5756402695956737,-10,-0.06028090806907389,-1.045461105615373,0,0.10948043096717064,-0.006312601931384139,0,0,70
47.5,-39.986295347545735,0.523359562429438,-10,-0.054806085217143044,-1.0457624033475874,0,0.10951198279190621,-0.005739279823006425,0,0,70
47.55,-39.9888987496197,0.4710645070964251,-10,-0.04932975982870087,-1.0460350309752509,0,0.10954053229031398,-0.005165800369373185,0,0,70
47.6,-39.99122830098858,0.41875653729199813,-10,-0.04385208203997472,-1.0462789810241389,0,0.10956607867969499,-0.004592179292713382,0,0,70
47.650000000000006,-39.993283937786565,0.3664370870655634,-10,-0.03837320202426724,-1.0464942468062381,0,0.10958862125968205,-0.004018432319138498,0,0,70
47.7,-39.995065603657316,0.3141075907812779,-10,-0.03289326998784173,-1.0466808224199287,0,0.10960815941225902,-0.0034445751782116395,0,0,70
47.75,-39.99657324975557,0.2617694830787342,-10,-0.02741243616580497,-1.046838702750145,0,0.10962469260177748,-0.002870623602516402,0,0,70
47.8,-39.99780683474846,0.2094241988335711,-10,-0.021930850817982503,-1.046967883468519,0,0.10963822037497181,-0.002296593327224918,0,0,70
47.85,-39.99876632481661,0.15707317311820265,-10,-0.016448664224806106,-1.0470683610334954,0,0.10964874236097115,-0.0017225000896672039,0,0,70
47.900000000000006,-39.99945169365512,0.10471784116245708,-10,-0.010966026683191934,-1.0471401326904315,0,0.10965625827131002,-0.0011483596288995141,0,0,70
47.95,-39.999862922474264,0.05235963831419377,-10,-0.005483088502416327,-1.0471831964716707,0,0.10966076789993592,-0.0005741876852724597,0,0,70
48.0,-40.0,5.665538897647979e-15,-10,-5.932938459826036e-16,-1.0471975511965976,0,0.1096622711232151,-6.212958626529938e-17,0,0,70
48.05,-39.999862922474264,-0.05235963831419576,-10,0.005483088502416535,-1.0471831964716707,0,0.10966076789993592,0.0005741876852724815,0,0,70
48.1,-39.99945169365512,-0.10471784116245907,-10,0.01096602668319214,-1.0471401326904315,0,0.10965625827131002,0.001148359628899536,0,0,70
48.150000000000006,-39.99876632481661,-0.15707317311820462,-10,0.016448664224806314,-1.0470683610334954,0,0.10964874236097115,0.0017225000896672255,0,0,70
48.2,-39.99780683474846,-0.2094241988335731,-10,0.021930850817982715,-1.046967883468519,0,0.10963822037497181,0.00229659332722494,0,0,70
48.25,-39.99657324975557,-0.26176948307873177,-10,0.027412436165804712,-1.046838702750145,0,0.10962469260177748,0.0028706236025163746,0,0,70
48.3,-39.995065603657316,-0.3141075907812799,-10,0.032893269987841936,-1.0466808224199287,0,0.10960815941225902,0.003444575178211661,0,0,70
48.35,-39.993283937786565,-0.3664370870655654,-10,0.03837320202426745,-1.0464942468062381,0,0.10958862125968205,0.00401843231913852,0,0,70
48.400000000000006,-39.99122830098858,-0.4187565372919957,-10,0.04385208203997446,-1.0462789810241389,0,0.10956607867969499,0.004592179292713356,0,0,70
48.45,-39.9888987496197,-0.4710645070964271,-10,0.049329759828701074,-1.0460350309752509,0,0.10954053229031398,0.005165800369373207,0,0,70
48.5,-39.986295347545735,-0.5233595624294356,-10,0.05480608521714279,-1.0457624033475874,0,0.10951198279190621,0.005739279823006398,0,0,70
48.55,-39.98341816614028,-0.5756402695956713,-10,0.06028090806907362,-1.045461105615373,0,0.10948043096717064,0.006312601931384113,0,0,70
48.6,-39.98026728428272,-0.6279051952931335,-10,0.06575407828945909,-1.045131146038838,0,0.10944587768111647,0.006885750976591092,0,0,70
48.650000000000006,-39.97684278835605,-0.6801529066524825,-10,0.07122544582857278,-1.0447725336639893,0,0.10940832388103945,0.007458711245456734,0,0,70
48.7,-39.97314477224458,-0.7323819712763189,-10,0.07669486068610981,-1.0443852783223675,0,0.10936777059649605,0.00803146702998584,0,0,70
48.75,-39.96917333733128,-0.7845909572784482,-10,0.08216217291529854,-1.043969390630773,0,0.10932421893927496,0.008604002627789206,0,0,70
48.8,-39.96492859249504,-0.8367784333231548,-10,0.08762723262701333,-1.0435248819909768,0,0.10927767010336696,0.009176302342514295,0,0,70
48.85,-39.9604106541077,-0.8889429686644162,-10,0.09308988999388106,-1.043051764589408,0,0.10922812536493183,0.00974835048427529,0,0,70
48.900000000000006,-39.9556196460308,-0.9410831331851455,-10,0.0985499952543906,-1.0425500513968193,0,0.10917558608226363,0.010320131370083417,0,0,70
48.95,-39.950555699612266,-0.9931974974363891,-10,0.10400739871699757,-1.042019756167931,0,0.10912005369575332,0.010891629324276803,0,0,70
49.0,-39.94521895368273,-1.0452846326765306,-10,0.10946195076422979,-1.0414608934410547,0,0.10906152972784934,0.011462828678950399,0,0,70
49.05,-39.939609554551794,-1.0973431109104541,-10,0.1149135018567884,-1.0408734785376947,0,0.10900001578301584,0.012033713774385451,0,0,70
49.1,-39.93372765600397,-1.1493715049286644,-10,0.12036190253764456,-1.040257527562127,0,0.10893551354768868,0.012604268959478493,0,0,70
49.150000000000006,-39.927573419294454,-1.2013683883464703,-10,0.12580700343614268,-1.0396130574009588,0,0.1088680247902292,0.013174478592171057,0,0,70
49.2,-39.921147013144775,-1.2533323356430472,-10,0.13124865527209115,-1.0389400857226652,0,0.10879755136087582,0.013744327039878025,0,0,70
49.25,-39.9144486137381,-1.3052619222005133,-10,0.13668670885985415,-1.0382386309771048,0,0.10872409519169322,0.014313798679916157,0,0,70
49.3,-39.90747840471444,-1.3571557243430423,-10,0.14212101511244785,-1.037508712395013,0,0.10864765829651929,0.014882877899933008,0,0,70
49.35,-39.90023657716557,-1.4090123193758306,-10,0.14755142504562083,-1.0367503499874777,0,0.10856824277091023,0.015451549098334247,0,0,70
49.400000000000006,-39.89272332962988,-1.460830285624117,-10,0.15297778978194018,-1.0359635645453866,0,0.10848585079208273,0.016019796684711565,0,0,70
49.45,-39.884938868086834,-1.512608202472194,-10,0.1583999605548769,-1.0351483776388601,0,0.10840048461885453,0.016587605080270476,0,0,70
49.5,-39.876883405951375,-1.5643446504023073,-10,0.1638177887128794,-1.0343048116166595,0,0.1083121465915824,0.017154958718256893,0,0,70
49.55,-39.86855716406807,-1.6160382110336113,-10,0.16923112572345284,-1.0334328896055724,0,0.10822083913209796,0.017721842044384338,0,0,70
49.6,-39.859960370705046,-1.6676874671610236,-10,0.17463982317722804,-1.0325326355097824,0,0.10812656474364134,0.018288239517260003,0,0,70
49.650000000000006,-39.85109326154774,-1.7192910027940933,-10,0.18004373279203173,-1.03160407401021,0,0.10802932601079256,0.01885413560881102,0,0,70
49.7,-39.84195607969242,-1.7708474031958363,-10,0.1854427064169534,-1.0306472305638368,0,0.10792912559940053,0.01941951480471032,0,0,70
49.75,-39.83254907563955,-1.8223552549214748,-10,0.190836596036402,-1.0296621314030103,0,0.10782596625651018,0.01998436160480145,0,0,70
49.8,-39.82287250728689,-1.8738131458572433,-10,0.19622525377416983,-1.0286488035347212,0,0.10771985081028701,0.020548660523524158,0,0,70
49.85,-39.81292663992245,-1.9252196652590725,-10,0.20160853189748343,-1.027607274739865,0,0.10761078216993959,0.02111239609033858,0,0,70
49.900000000000006,-39.80271174621722,-1.9765734037912652,-10,0.2069862828210537,-1.0265375735724795,0,0.10749876332563978,0.021675552850149382,0,0,70
49.95,-39.79222810621766,-2.027872953565125,-10,0.21235835911112105,-1.0254397293589628,0,0.10738379734844077,0.02223811536372937,0,0,70
50.0,-39.78147600733806,-2.079116908177591,-10,0.21772461348950145,-1.0243137721972686,0,0.10726588739019295,0.022800068208143166,0,0,70
50.050000000000004,-39.77045574435263,-2.1303038627497686,-10,0.2230848988376211,-1.023159732956081,0,0.10714503668345729,0.023361395977169748,0,0,70
50.1,-39.759167619387476,-2.181432413965425,-10,0.2284390682005476,-1.0219776432739693,0,0.10702124854141708,0.023922083281724602,0,0,70
50.15,-39.74761194191222,-2.23250116010951,-10,0.23378697479102425,-1.0207675355585188,0,0.10689452635778668,0.024482114750282134,0,0,70
50.2,-39.7357890287316,-2.2835087011065593,-10,0.23912847199349127,-1.0195294429854436,0,0.10676487360671878,0.025041475029296826,0,0,70
50.25,-39.723699203976764,-2.3344536385590526,-10,0.2444634133681027,-1.0182633994976775,0,0.10663229384270909,0.02560014878362388,0,0,70
50.300000000000004,-39.71134279909636,-2.385334575785813,-10,0.24979165265474784,-1.016969439804442,0,0.10649679070049874,0.026158120696940308,0,0,70
50.35,-39.69872015284747,-2.4361501178602216,-10,0.2551130437770527,-1.015647599380296,0,0.10635836789497491,0.026715375472164002,0,0,70
50.4,-39.68583161128631,-2.486898871648546,-10,0.2604274408463939,-1.0142979144641624,0,0.1062170292210687,0.027271897831874052,0,0,70
50.45,-39.672677527758765,-2.5375794458480594,-10,0.26573469816589074,-1.012920422058334,0,0.10607277855365117,0.02782767251872878,0,0,70
50.5,-39.65925826289069,-2.5881904510252034,-10,0.27103467023440103,-1.0115151599274628,0,0.10592561984742739,0.028382684295884218,0,0,70
50.550000000000004,-39.64557418457798,-2.6387304996537346,-10,0.27632721175051655,-1.010082166597518,0,0.10577555713682746,0.028936917947412467,0,0,70
50.6,-39.63162566797658,-2.689198206152659,-10,0.2816121776165348,-1.008621481354737,0,0.10562259453589655,0.029490358278717654,0,0,70
50.65,-39.61741309549211,-2.7395921869243196,-10,0.2868894229424479,-1.0071331442445433,0,0.10546673623818156,0.03004299011695365,0,0,70
50.7,-39.60293685676943,-2.7899110603922974,-10,0.2921588030499117,-1.00561719607045,0,0.10530798651661641,0.03059479831143966,0,0,70
50.75,-39.58819734868193,-2.840153447039228,-10,0.29742017347620553,-1.004073678392943,0,0.10514634972340499,0.03114576773407497,0,0,70
50.800000000000004,-39.573194975320675,-2.8903179694447183,-10,0.30267338997820314,-1.002502633528338,0,0.10498183028990159,0.03169588327975472,0,0,70
50.85,-39.5579301479833,-2.940403252323039,-10,0.3079183085363198,-1.0009041045476248,0,0.1048144327264896,0.03224512986678325,0,0,70
50.9,-39.54240328516277,-2.990407922560867,-10,0.31315478535846447,-0.9992781352752821,0,0.10464416162245778,0.03279349243728802,0,0,70
50.95,-39.52661481253586,-3.0403306092549047,-10,0.31838267688397964,-0.9976247702880788,0,0.10447102164587445,0.033340955957632104,0,0,70
51.0,-39.510565162951536,-3.0901699437494727,-10,0.32360183978757756,-0.9959440549138521,0,0.10429501754345957,0.0338875054188265,0,0,70
51.050000000000004,-39.49425477641904,-3.1399245596740535,-10,0.3288121309832724,-0.9942360352302617,0,0.10411615414045443,0.03443312583694178,0,0,70
51.1,-39.47768410009586,-3.1895930929807004,-10,0.3340134076282971,-0.9925007580635311,0,0.10393443634048967,0.034977802253518375,0,0,70
51.15,-39.460853588275455,-3.239174181981492,-10,0.3392055271270261,-0.9907382709871599,0,0.10374986912545052,0.03552151973597728,0,0,70
51.2,-39.44376370237481,-3.2886664673858315,-10,0.34438834713488087,-0.9889486223206218,0,0.10356245755534041,0.03606426337802911,0,0,70
51.25,-39.426414910921785,-3.3380685923377094,-10,0.3495617255622323,-0.9871318611280386,0,0.1033722067681422,0.03660601830008268,0,0,70
51.300000000000004,-39.40880768954226,-3.387379202452915,-10,0.3547255205782977,-0.9852880372168367,0,0.10317912197967735,0.03714676964965317,0,0,70
51.35,-39.39094252094709,-3.436596945856159,-10,0.3598795906150276,-0.9834172011363799,0,0.1029832084834629,0.037686502601769103,0,0,70
51.4,-39.37281989491892,-3.4857204732181515,-10,0.3650237943709894,-0.9815194041765841,0,0.10278447165056626,0.038225202359379054,0,0,70
51.45,-39.35444030829867,-3.5347484377925715,-10,0.370157990815238,-0.9795946983665116,0,0.10258291692945806,0.038762854153757,0,0,70
51.5,-39.33580426497202,-3.583679495453,-10,0.375282039191184,-0.9776431364729451,0,0.10237854984586293,0.039299443244907355,0,0,70
51.550000000000004,-39.316912275855486,-3.63251230472979,-10,0.3803957990204545,-0.9756647719989385,0,0.10217137600260753,0.03983495492196931,0,0,70
51.6,-39.297764858882516,-3.681245526846779,-10,0.3854991301067376,-0.9736596591823549,0,0.10196140107946759,0.04036937450361943,0,0,70
51.65,-39.2783625389892,-3.7298778257580856,-10,0.3905918925396357,-0.9716278529943738,0,0.10174863083301161,0.04090268733847512,0,0,70
51.7,-39.25870584809995,-3.7784078681846727,-10,0.3956739466984946,-0.9695694091379882,0,0.10153307109644334,0.04143487880549567,0,0,70
51.75,-39.23879532511287,-3.8268343236508966,-10,0.4007451532562307,-0.967484384046477,0,0.10131472777944193,0.041965934314383,0,0,70
51.800000000000004,-39.21863151588501,-3.8751558645210338,-10,0.4058053731831561,-0.9653728348818557,0,0.10109360686799966,0.042495839305982254,0,0,70
51.85,-39.198214973217375,-3.923371166035616,-10,0.4108544677507837,-0.9632348195333115,0,0.10086971442425804,0.043024579252680224,0,0,70
51.9,-39.17754625683981,-3.971478906347804,-10,0.41589229853563625,-0.9610703966156154,0,0.10064305658634153,0.043552139658804265,0,0,70
51.95,-39.15662593339561,-4.019477766559605,-10,0.4209187274230388,-0.9588796254675143,0,0.10041363956818918,0.04407850606101944,0,0,70
52.0,-39.13545457642601,-4.067366430758002,-10,0.4259336166109026,-0.9566625661501067,0,0.1001814696593845,0.04460366402872477,0,0,70
52.050000000000004,-39.11403276635445,-4.115143586051094,-10,0.43093682861350907,-0.9544192794451933,0,0.09994655322498276,0.04512759916444946,0,0,70
52.1,-39.09236109047068,-4.1628079226040136,-10,0.4359282262652719,-0.9521498268536127,0,0.09970889670533677,0.04565029710424691,0,0,70
52.15,-39.07044014291465,-4.210358133674905,-10,0.4409076727245038,-0.9498542705935542,0,0.09946850661592005,0.04617174351808913,0,0,70
52.2,-39.0482705246602,-4.257792915650727,-10,0.44587503147716634,-0.947532673598851,0,0.0992253895471482,0.04669192411025945,0,0,70
52.25,-39.025852843498605,-4.305110968082953,-10,0.4508301663406083,-0.9451850995172587,0,0.09897955216419858,0.047210824619743984,0,0,70
52.300000000000004,-39.003187714021934,-4.352310993723277,-10,0.4557729414673046,-0.9428116127087063,0,0.09873100120682723,0.04772843082062317,0,0,70
52.35,-38.98027575760616,-4.399391698559151,-10,0.4607032213485783,-0.9404122782435338,0,0.09847974348918422,0.048244728522461526,0,0,70
52.4,-38.95711760239413,-4.446351791849276,-10,0.4656208708183166,-0.9379871619007072,0,0.09822578589962672,0.04875970357069685,0,0,70
52.45,-38.93371388327837,-4.493189986158967,-10,0.4705257550566745,-0.9355363301660161,0,0.09796913540053037,0.04927334184702797,0,0,70
52.5,-38.91006524188368,-4.539904997395467,-10,0.4754177395937729,-0.933059850230251,0,0.0977097990280983,0.049785629269802074,0,0,70
52.550000000000004,-38.886172326549485,-4.5864955448431495,-10,0.4802966903133851,-0.9305577899873597,0,0.0974477838921681,0.050296551794400755,0,0,70
52.6,-38.86203579231214,-4.632960351198618,-10,0.48516247345661223,-0.9280302180325879,0,0.09718309717601706,0.050806095413624866,0,0,70
52.65,-38.837656300886934,-4.679298142605732,-10,0.49001495562555103,-0.9254772036605982,0,0.09691574613616534,0.051314246158078655,0,0,70
52.7,-38.81303452064992,-4.725507648690539,-10,0.49485400378695243,-0.9228988168635681,0,0.09664573810217658,0.05182099009655285,0,0,70
52.75,-38.78817112661965,-4.771587602596084,-10,0.49967948527586636,-0.9202951283292747,0,0.09637308047645751,0.05232631333640637,0,0,70
52.800000000000004,-38.76306680043864,-4.817536741017154,-10,0.5044912677992801,-0.9176662094391543,0,0.09609778073405466,0.052830202023947316,0,0,70
52.85,-38.73772223035465,-4.863353804234904,-10,0.5092892194397449,-0.9150121322663466,0,0.09581984642244955,0.053332642344812754,0,0,70
52.9,-38.712138111201895,-4.909037536151404,-10,0.514073208658993,-0.9123329695737179,0,0.09553928516135174,0.0538336205243475,0,0,70
52.95,-38.68631514438191,-4.954586684324076,-10,0.5188431043015442,-0.9096287948118659,0,0.09525610464248985,0.054333122827981806,0,0,70
53.0,-38.66025403784439,-4.999999999999997,-10,0.5235987755982986,-0.9068996821171091,0,0.09497031262940096,0.054831135561607514,0,0,70
53.050000000000004,-38.633955506067714,-5.045276238150195,-10,0.5283400921701267,-0.9041457063094493,0,0.09468191695721737,0.05532764507195414,0,0,70
53.1,-38.60742027003944,-5.090414157503712,-10,0.533066924031438,-0.9013669428905257,0,0.09439092553245221,0.05582263774696246,0,0,70
53.15,-38.58064905723644,-5.135412520581698,-10,0.5377791415937502,-0.8985634680415402,0,0.0940973463327823,0.05631610001615836,0,0,70
53.2,-38.55364260160506,-5.180270093731304,-10,0.5424766156692391,-0.8957353586211718,0,0.09380118740682974,0.05680801835102451,0,0,70
53.25,-38.52640164354092,-5.224985647159487,-10,0.5471592174742785,-0.89288269216347,0,0.09350245687394115,0.05729837926537111,0,0,70
53.300000000000004,-38.49892692986864,-5.269557954966779,-10,0.5518268186329762,-0.8900055468757254,0,0.09320116292396484,0.057787169315706176,0,0,70
53.35,-38.47121921382137,-5.31398579518083,-10,0.556479291180687,-0.8871040016363307,0,0.09289731381702682,0.05827437510160339,0,0,70
53.4,-38.44327925502016,-5.358267949789961,-10,0.5611165075675261,-0.8841781359926141,0,0.09259091788330377,0.05875998326607005,0,0,70
53.45,-38.415107819453056,-5.402403204776554,-10,0.5657383406618659,-0.8812280301586585,0,0.09228198352279487,0.05924398049591325,0,0,70
53.5,-38.38670567945424,-5.446390350150271,-10,0.5703446637538144,-0.8782537650131079,0,0.09197051920509189,0.059726353522104134,0,0,70
53.550000000000004,-38.358073613682706,-5.490228179981318,-10,0.5749353505586989,-0.8752554220969423,0,0.09165653346914626,0.06020708912014271,0,0,70
53.6,-38.329212407101,-5.533915492433444,-10,0.5795102752205216,-0.8722330836112479,0,0.09134003492303559,0.06068617411041967,0,0,70
53.65,-38.30012285095368,-5.5774510897969005,-10,0.5840693123154109,-0.8691868324149612,0,0.0910210322437275,0.06116359535857792,0,0,70
53.7,-38.27080574274562,-5.620833778521305,-10,0.588612336855063,-0.866116752022597,0,0.09069953417684144,0.06163933977587289,0,0,70
53.75,-38.24126188622016,-5.664062369248329,-10,0.5931392242901651,-0.8630229266019602,0,0.09037554953640939,0.06211339431953103,0,0,70
53.800000000000004,-38.211492091337036,-5.707135676844319,-10,0.5976498505138108,-0.8599054409718376,0,0.09004908720463389,0.06258574599310754,0,0,70
53.85,-38.18149717425024,-5.750052520432786,-10,0.6021440918649038,-0.8567643805996731,0,0.08972015613164475,0.06305638184684265,0,0,70
53.9,-38.151277957285544,-5.7928117234267855,-10,0.6066218251315473,-0.8535998315992226,0,0.08938876533525342,0.0635252889780167,0,0,70
53.95,-38.120835268918064,-5.835412113561177,-10,0.6110829275544227,-0.8504118807281958,0,0.08905492390070599,0.06399245453130394,0,0,70
54.0,-38.09016994374947,-5.87785252292473,-10,0.6155272768301521,-0.8472006153858768,0,0.08871864098043408,0.06445786569912457,0,0,70
54.050000000000004,-38.05928282248516,-5.9201317879921955,-10,0.6199547511146563,-0.843966123610726,0,0.08837992579380374,0.06492150972199642,0,0,70
54.1,-38.028174751911145,-5.962248749656158,-10,0.6243652290264906,-0.8407084940779704,0,0.088038787626863,0.06538337388888438,0,0,70
54.15,-37.99684658487091,-6.004202253258839,-10,0.6287585896501751,-0.8374278160971689,0,0.08769523583208699,0.06584344553754898,0,0,70
54.2,-37.96529918024196,-6.045991148623747,-10,0.6331347125395094,-0.834124179609765,0,0.08734927982812171,0.0663017120548936,0,0,70
54.25,-37.93353340291235,-6.0876142900872035,-10,0.6374934777208734,-0.8307976751866228,0,0.08700092909952578,0.06675816087731015,0,0,70
54.300000000000004,-37.9015501237569,-6.1290705365297695,-10,0.6418347656965192,-0.8274483940255399,0,0.0866501931965103,0.0672127794910237,0,0,70
54.35,-37.869350219613374,-6.170358751407486,-10,0.6461584574478415,-0.8240764279487535,0,0.08629708173467741,0.06766555543243506,0,0,70
54.4,-37.836934573258404,-6.2114778027831,-10,0.6504644344386485,-0.8206818694004152,0,0.08594160439475608,0.06811647628846326,0,0,70
54.45,-37.80430407338329,-6.252426563357055,-10,0.6547525786184067,-0.8172648114440618,0,0.08558377092233707,0.06856552969688533,0,0,70
54.5,-37.77145961456971,-6.293203910498372,-10,0.6590227724254748,-0.8138253477600655,0,0.08522359112760602,0.06901270334667499,0,0,70
54.550000000000004,-37.73840209726506,-6.333808726275504,-10,0.6632748987903349,-0.8103635726430588,0,0.08486107488507373,0.06945798497834099,0,0,70
54.6,-37.70513242775789,-6.3742398974869,-10,0.6675088411387934,-0.8068795809993559,0,0.08449623213330622,0.06990136238426232,0,0,70
54.65,-37.671651518153,-6.414496315691576,-10,0.6717244833951815,-0.8033734683443482,0,0.08412907287465188,0.07034282340902338,0,0,70
54.7,-37.63796028634642,-6.454576877239507,-10,0.6759217099855395,-0.7998453307998835,0,0.08375960717496707,0.07078235594974738,0,0,70
54.75,-37.60405965600031,-6.494480483301835,-10,0.6801004058407778,-0.7962952650916368,0,0.08338784516334077,0.07121994795642748,0,0,70
54.800000000000004,-37.56995055651756,-6.534206039901057,-10,0.6842604563998405,-0.7927233685464512,0,0.08301379703181617,0.07165558743225792,0,0,70
54.85,-37.53563392301638,-6.573752457940958,-10,0.6884017476128386,-0.7891297390896762,0,0.0826374730351119,0.0720892624339623,0,0,70
54.9,-37.50111069630459,-6.613118653236517,-10,0.6925241659441823,-0.785514475242478,0,0.08225888349034033,0.0725209610721214,0,0,70
54.95,-37.46638182285391,-6.652303546543611,-10,0.6966275983756912,-0.7818776761191406,0,0.08187803877672505,0.07295067151149909,0,0,70
55.0,-37.43144825477394,-6.691306063588582,-10,0.7007119324096909,-0.7782194414243502,0,0.08149494933531636,0.07337838197136641,0,0,70
55.050000000000004,-37.3963109497861,-6.730125135097734,-10,0.7047770560721018,-0.7745398714504581,0,0.08110962566870472,0.07380408072582523,0,0,70
55.1,-37.36097087119734,-6.76875969682661,-10,0.7088228579155051,-0.7708390670747343,0,0.08072207834073317,0.07422775610412909,0,0,70
55.15,-37.32542898787379,-6.807208689589177,-10,0.7128492270221987,-0.7671171297566002,0,0.08033231797620743,0.0746493964910034,0,0,70
55.2,-37.28968627421412,-6.845471059286887,-10,0.7168560530072409,-0.7633741615348472,0,0.07994035526060479,0.0750689903269641,0,0,70
55.25,-37.253743710122876,-6.883545756937538,-10,0.7208432260214721,-0.7596102650248402,0,0.07954620093978113,0.07548652610863413,0,0,70
55.300000000000004,-37.21760228098362,-6.9214317387040705,-10,0.7248106367545313,-0.7558255434157026,0,0.07914986581967615,0.07590199238905918,0,0,70
55.35,-37.18126297763189,-6.959127965923143,-10,0.7287581764378476,-0.7520201004674902,0,0.07875136076601752,0.07631537777802119,0,0,70
55.4,-37.14472679632804,-6.996633405133651,-10,0.7326857368476272,-0.7481940405083433,0,0.07835069670402252,0.07672667094235101,0,0,70
55.45,-37.10799473872992,-7.03394702810504,-10,0.7365932103078183,-0.7443474684316276,0,0.07794788461809872,0.0771358606062388,0,0,70
55.5,-37.071067811865476,-7.071067811865475,-10,0.7404804896930609,-0.7404804896930612,0,0.07754293555154311,0.0775429355515431,0,0,70
